{"trialID": {"id": 0, "triggers": [192], "duration": 0.01}, "hemifield": "left", "block": 1, "sequence_number": 1, "delay": 8.879295442325212, "tones": [{"toneNumber": 0, "time": 83.57061509999767, "prePupil": [0, 83.5585701999953], "postPupil": [0, 83.62073879999662]}, {"toneNumber": 1, "time": 87.22435249999398, "prePupil": [0, 87.21227799999906], "postPupil": [0, 87.27441779999936]}, {"toneNumber": 2, "time": 89.81917819999944, "prePupil": [0, 89.8081932999994], "postPupil": [0, 89.86925899999915]}], "extrakeypresses": [81.23829119999573], "coordinates": [-3.037405645435829, 6.148389765031965], "preSpotPupil": [0, 90.56543029999739], "startTime": 90.59012899999652, "postSpotPupil": [0, 90.9918359000003], "rt": 0.364965900000243, "response_key": "2"}
{"trialID": {"id": 1, "triggers": [193], "duration": 0.01}, "hemifield": "left", "block": 1, "sequence_number": 2, "delay": 6.66781375365266, "tones": [{"toneNumber": 3, "time": 94.28252039999643, "prePupil": [0, 94.27063780000026], "postPupil": [0, 94.33258909999859]}], "extrakeypresses": [], "coordinates": [-14.172188084009887, -5.624938599871739], "preSpotPupil": [0, 98.7287823000006], "startTime": 98.75333089999913, "postSpotPupil": [0, 99.13698109999677], "rt": 0.33086610000464134, "response_key": "2"}
{"trialID": {"id": 2, "triggers": [194], "duration": 0.01}, "hemifield": "left", "block": 1, "sequence_number": 3, "delay": 7.913485148658054, "tones": [{"toneNumber": 4, "time": 102.43525819999923, "prePupil": [0, 102.42286189999868], "postPupil": [0, 102.48536969999986]}, {"toneNumber": 5, "time": 106.05041449999408, "prePupil": [0, 106.03863479999563], "postPupil": [0, 106.10047599999962]}], "extrakeypresses": [], "coordinates": [-5.517458269061212, -6.843836932235301], "preSpotPupil": [0, 108.10872219999874], "startTime": 108.12658620000002, "postSpotPupil": [0, 108.48989539999457], "rt": 0.3426171999963117, "response_key": "2"}
{"trialID": {"id": 3, "triggers": [195], "duration": 0.01}, "hemifield": "left", "block": 1, "sequence_number": 4, "delay": 3.5609814648692373, "tones": [{"toneNumber": 6, "time": 111.3029247999948, "prePupil": [0, 111.2906182999941], "postPupil": [0, 111.35300009999628]}], "extrakeypresses": [], "coordinates": [-4.560723452385769, 7.505190029926316], "preSpotPupil": [0, 113.10762219999742], "startTime": 113.1253546999942, "postSpotPupil": [0, 113.5312288999994], "rt": 0.3740163000038592, "response_key": "2"}
{"trialID": {"id": 4, "triggers": [196], "duration": 0.01}, "hemifield": "left", "block": 1, "sequence_number": 5, "delay": 6.246273405049547, "tones": [{"toneNumber": 7, "time": 116.8459842999946, "prePupil": [0, 116.83393009999418], "postPupil": [0, 116.89607629999955]}], "extrakeypresses": [], "coordinates": [-11.773063199931885, -5.569016834601818], "preSpotPupil": [0, 120.83612139999605], "startTime": 120.85398069999792, "postSpotPupil": [0, 121.21742109999468], "rt": 0.33623829999851296, "response_key": "2"}
{"trialID": {"id": 5, "triggers": [197], "duration": 0.01}, "hemifield": "left", "block": 1, "sequence_number": 6, "delay": 7.020491350433977, "tones": [{"toneNumber": 8, "time": 125.53221729999495, "prePupil": [0, 125.5189750999998], "postPupil": [0, 125.58234769999399]}, {"toneNumber": 9, "time": 128.05887470000016, "prePupil": [0, 128.0465569999942], "postPupil": [0, 128.10894079999707]}], "extrakeypresses": [], "coordinates": [-14.263440241303698, 2.919508278899505], "preSpotPupil": [0, 129.29725920000055], "startTime": 129.33489529999497, "postSpotPupil": [0, 129.71697649999987], "rt": 0.33024379999551456, "response_key": "2"}
{"trialID": {"id": 6, "triggers": [198], "duration": 0.01}, "hemifield": "left", "block": 1, "sequence_number": 7, "delay": 7.9130561402629525, "tones": [{"toneNumber": 10, "time": 134.39184849999583, "prePupil": [0, 134.37952469999436], "postPupil": [0, 134.44201029999385]}, {"toneNumber": 11, "time": 136.90335079999932, "prePupil": [0, 136.8904235999944], "postPupil": [0, 136.9534224999952]}], "extrakeypresses": [], "coordinates": [-7.999918043859596, 7.235325178216383], "preSpotPupil": [0, 138.68817359999957], "startTime": 138.70614949999435, "postSpotPupil": [0, 139.06974729999638], "rt": 0.31920589999936055, "response_key": "2"}
{"trialID": {"id": 7, "triggers": [199], "duration": 0.01}, "hemifield": "left", "block": 1, "sequence_number": 8, "delay": 5.8985540063727635, "tones": [{"toneNumber": 12, "time": 142.759807800001, "prePupil": [0, 142.74770149999677], "postPupil": [0, 142.80987989999994]}, {"toneNumber": 13, "time": 144.8832306999975, "prePupil": [0, 144.87193809999735], "postPupil": [0, 144.93329199999425]}], "extrakeypresses": [], "coordinates": [-14.346907482205589, 1.1810989438662336], "preSpotPupil": [0, 146.02630219999992], "startTime": 146.06097559999762, "postSpotPupil": [0, 146.48558259999845], "rt": 0.3654322000002139, "response_key": "2"}
{"trialID": {"id": 8, "triggers": [200], "duration": 0.01}, "hemifield": "left", "block": 1, "sequence_number": 9, "delay": 3.730839668583764, "tones": [{"toneNumber": 14, "time": 148.87370169999485, "prePupil": [0, 148.86034349999682], "postPupil": [0, 148.92376829999557]}, {"toneNumber": 15, "time": 150.6366315999985, "prePupil": [0, 150.6242340999961], "postPupil": [0, 150.68670109999948]}], "extrakeypresses": [], "coordinates": [-5.377359771862041, -1.2621143887831945], "preSpotPupil": [0, 151.2754117000004], "startTime": 151.31008969999675, "postSpotPupil": [0, 151.7143675999978], "rt": 0.3426800000015646, "response_key": "2"}
{"trialID": {"id": 9, "triggers": [201], "duration": 0.01}, "hemifield": "left", "block": 1, "sequence_number": 10, "delay": 9.428273478784885, "tones": [{"toneNumber": 16, "time": 154.5186870999969, "prePupil": [0, 154.50725589999638], "postPupil": [0, 154.56877209999948]}, {"toneNumber": 17, "time": 156.45388470000034, "prePupil": [0, 156.4421450000009], "postPupil": [0, 156.50396189999447]}, {"toneNumber": 18, "time": 158.20427609999751, "prePupil": [0, 158.19106029999966], "postPupil": [0, 158.25436429999536]}], "extrakeypresses": [], "coordinates": [-13.750083117769556, 3.0768735249394297], "preSpotPupil": [0, 162.20050489999994], "startTime": 162.22472059999563, "postSpotPupil": [0, 162.58793049999804], "rt": 0.3044281000038609, "response_key": "2"}
{"trialID": {"id": 10, "triggers": [202], "duration": 0.01}, "hemifield": "left", "block": 1, "sequence_number": 11, "delay": 9.14634287187737, "tones": [{"toneNumber": 19, "time": 165.9652866999968, "prePupil": [0, 165.95362269999896], "postPupil": [0, 166.01539259999845]}, {"toneNumber": 20, "time": 167.81389599999966, "prePupil": [0, 167.80205069999647], "postPupil": [0, 167.86396189999505]}], "extrakeypresses": [], "coordinates": [-12.182705578200153, -6.247263283091766], "preSpotPupil": [0, 172.7917324000009], "startTime": 172.82762250000087, "postSpotPupil": [0, 173.19060819999868], "rt": 0.3245311999999103, "response_key": "2"}
{"trialID": {"id": 11, "triggers": [203], "duration": 0.01}, "hemifield": "left", "block": 1, "sequence_number": 12, "delay": 3.1080779545885386, "tones": [], "extrakeypresses": [], "coordinates": [-8.060503758386092, -2.1814024467203614], "preSpotPupil": [0, 177.3586498999939], "startTime": 177.39053689999855, "postSpotPupil": [0, 177.8362005999952], "rt": 0.4009052999972482, "response_key": "2"}
{"trialID": {"id": 12, "triggers": [204], "duration": 0.01}, "hemifield": "left", "block": 1, "sequence_number": 13, "delay": 2.739920814604355, "tones": [], "extrakeypresses": [], "coordinates": [-6.627711251078519, -4.70944163639886], "preSpotPupil": [0, 181.633402499996], "startTime": 181.6600593999974, "postSpotPupil": [0, 182.2728857999973], "rt": 0.5810806000008597, "response_key": "2", "late": true}
{"trialID": {"id": 13, "triggers": [205], "duration": 0.01}, "hemifield": "left", "block": 1, "sequence_number": 14, "delay": 8.52663921287132, "tones": [{"toneNumber": 21, "time": 186.7523943999986, "prePupil": [0, 186.7405484999981], "postPupil": [0, 186.80248949999805]}, {"toneNumber": 22, "time": 190.97721029999957, "prePupil": [0, 190.96515359999466], "postPupil": [0, 191.02727639999648]}], "extrakeypresses": [], "coordinates": [-10.414550368660064, -3.818507593975056], "preSpotPupil": [0, 191.84050809999462], "startTime": 191.86762249999447, "postSpotPupil": [0, 192.2302223000006], "rt": 0.32354480000503827, "response_key": "2"}
{"trialID": {"id": 14, "triggers": [206], "duration": 0.01}, "hemifield": "left", "block": 1, "sequence_number": 15, "delay": 8.91629692977159, "tones": [{"toneNumber": 23, "time": 195.95286990000022, "prePupil": [0, 195.94066439999733], "postPupil": [0, 196.00293489999603]}, {"toneNumber": 24, "time": 200.86631849999685, "prePupil": [0, 200.85460859999876], "postPupil": [0, 200.91639299999952]}], "extrakeypresses": [], "coordinates": [-1.5986765961038856, 2.827522861463466], "preSpotPupil": [0, 202.2045680999945], "startTime": 202.2418140000009, "postSpotPupil": [0, 202.5622915999993], "rt": 0.297791099997994, "response_key": "2"}
{"trialID": {"id": 15, "triggers": [207], "duration": 0.01}, "hemifield": "right", "block": 2, "sequence_number": 16, "delay": 2.174699717046087, "tones": [], "extrakeypresses": [], "coordinates": [3.588265210020625, -4.288381589089436], "preSpotPupil": [0, 208.8452124999967], "startTime": 208.86451439999655, "postSpotPupil": [0, 209.27011779999884], "rt": 0.3526740000015707, "response_key": "2"}
{"trialID": {"id": 16, "triggers": [208], "duration": 0.01}, "hemifield": "right", "block": 2, "sequence_number": 17, "delay": 3.1446730071782056, "tones": [{"toneNumber": 25, "time": 212.5150078000006, "prePupil": [0, 212.5029596999957], "postPupil": [0, 212.56510039999557]}], "extrakeypresses": [], "coordinates": [15.762373088138977, 2.5744399807667495], "preSpotPupil": [0, 213.47770119999768], "startTime": 213.51110449999396, "postSpotPupil": [0, 214.20724549999431], "rt": 0.648122600003262, "response_key": "2", "late": true}
{"trialID": {"id": 17, "triggers": [209], "duration": 0.01}, "hemifield": "right", "block": 2, "sequence_number": 18, "delay": 2.088971542031909, "tones": [{"toneNumber": 26, "time": 216.32946380000067, "prePupil": [0, 216.3184803999975], "postPupil": [0, 216.3795317999975]}], "extrakeypresses": [], "coordinates": [1.8438456856910872, 4.64028083139311], "preSpotPupil": [0, 217.3329506999944], "startTime": 217.36290449999797, "postSpotPupil": [0, 217.78969479999796], "rt": 0.4035116000013659, "response_key": "2"}
{"trialID": {"id": 18, "triggers": [210], "duration": 0.01}, "hemifield": "right", "block": 2, "sequence_number": 19, "delay": 4.7280653629853004, "tones": [{"toneNumber": 27, "time": 220.84666730000026, "prePupil": [0, 220.83499359999405], "postPupil": [0, 220.89673129999574]}], "extrakeypresses": [], "coordinates": [16.09087542189458, -3.2408016648619418], "preSpotPupil": [0, 223.57707809999556], "startTime": 223.5918329999986, "postSpotPupil": [0, 224.14339019999898], "rt": 0.4913382999948226, "response_key": "2", "late": true}
{"trialID": {"id": 19, "triggers": [211], "duration": 0.01}, "hemifield": "right", "block": 2, "sequence_number": 20, "delay": 8.239307200049927, "tones": [{"toneNumber": 28, "time": 229.36350529999618, "prePupil": [0, 229.35262469999725], "postPupil": [0, 229.41368279999733]}, {"toneNumber": 29, "time": 231.36406149999675, "prePupil": [0, 231.35237269999925], "postPupil": [0, 231.41414929999883]}], "extrakeypresses": [], "coordinates": [10.46655747326174, 3.7661639225191514], "preSpotPupil": [0, 233.43974349999917], "startTime": 233.46695719999843, "postSpotPupil": [0, 233.8107419999942], "rt": 0.2942633000056958, "response_key": "2"}
{"trialID": {"id": 20, "triggers": [212], "duration": 0.01}, "hemifield": "right", "block": 2, "sequence_number": 21, "delay": 3.884533990649693, "tones": [{"toneNumber": 30, "time": 235.9926817999949, "prePupil": [0, 235.98051479999413], "postPupil": [0, 236.04275139999663]}], "extrakeypresses": [], "coordinates": [6.389233941687642, -5.516226657307474], "preSpotPupil": [0, 238.75398929999938], "startTime": 238.77903230000084, "postSpotPupil": [0, 239.18340279999393], "rt": 0.35736370000086026, "response_key": "2"}
{"trialID": {"id": 21, "triggers": [213], "duration": 0.01}, "hemifield": "right", "block": 2, "sequence_number": 22, "delay": 7.045967070258534, "tones": [{"toneNumber": 31, "time": 241.39633489999687, "prePupil": [0, 241.384679099996], "postPupil": [0, 241.4464313999997]}, {"toneNumber": 32, "time": 243.24079599999823, "prePupil": [0, 243.22899049999978], "postPupil": [0, 243.29087349999463]}], "extrakeypresses": [], "coordinates": [10.117828634510875, 7.7677753923395105], "preSpotPupil": [0, 247.28668900000048], "startTime": 247.31972729999688, "postSpotPupil": [0, 247.6824742999961], "rt": 0.32249469999806024, "response_key": "2"}
{"trialID": {"id": 22, "triggers": [214], "duration": 0.01}, "hemifield": "right", "block": 2, "sequence_number": 23, "delay": 8.345211585242572, "tones": [{"toneNumber": 33, "time": 252.13888690000022, "prePupil": [0, 252.12783599999966], "postPupil": [0, 252.18899759999476]}, {"toneNumber": 34, "time": 254.9000648000001, "prePupil": [0, 254.88806209999893], "postPupil": [0, 254.9501218000005]}], "extrakeypresses": [], "coordinates": [16.09947681952766, 4.379041573113893], "preSpotPupil": [0, 257.08482489999733], "startTime": 257.1105205999993, "postSpotPupil": [0, 257.51470609999524], "rt": 0.35973529999319, "response_key": "2"}
{"trialID": {"id": 23, "triggers": [215], "duration": 0.01}, "hemifield": "right", "block": 2, "sequence_number": 24, "delay": 5.296966378098148, "tones": [{"toneNumber": 35, "time": 260.49913159999414, "prePupil": [0, 260.4865372999993], "postPupil": [0, 260.5491955999969]}, {"toneNumber": 36, "time": 262.75844619999407, "prePupil": [0, 262.7466521999959], "postPupil": [0, 262.80854030000046]}], "extrakeypresses": [], "coordinates": [12.311557892067555, -7.635699340945878], "preSpotPupil": [0, 263.8699514999971], "startTime": 263.9008356999984, "postSpotPupil": [0, 264.89060989999416], "missed": true}
{"trialID": {"id": 24, "triggers": [216], "duration": 0.01}, "hemifield": "right", "block": 2, "sequence_number": 25, "delay": 3.4730957248520253, "tones": [], "extrakeypresses": [], "coordinates": [12.89235826206394, 4.760156217482626], "preSpotPupil": [0, 268.883310899997], "startTime": 268.89846159999433, "postSpotPupil": [0, 269.3048162999985], "rt": 0.3477697000053013, "response_key": "2"}
{"trialID": {"id": 25, "triggers": [217], "duration": 0.01}, "hemifield": "right", "block": 2, "sequence_number": 26, "delay": 2.6176344996162735, "tones": [{"toneNumber": 37, "time": 271.4756725999978, "prePupil": [0, 271.4639975999962], "postPupil": [0, 271.5257625999948]}], "extrakeypresses": [], "coordinates": [9.568621915250231, 0.006777483365350889], "preSpotPupil": [0, 272.977828199997], "startTime": 273.0033942000009, "postSpotPupil": [0, 273.99364709999645], "missed": true}
{"trialID": {"id": 26, "triggers": [218], "duration": 0.01}, "hemifield": "right", "block": 2, "sequence_number": 27, "delay": 7.324008183683172, "tones": [{"toneNumber": 38, "time": 277.4805935999975, "prePupil": [0, 277.46889609999926], "postPupil": [0, 277.5306897999981]}, {"toneNumber": 39, "time": 280.5544430000009, "prePupil": [0, 280.54244409999956], "postPupil": [0, 280.6044999000005]}], "extrakeypresses": [], "coordinates": [7.558172199479665, 6.013381005918667], "preSpotPupil": [0, 281.83493469999667], "startTime": 281.85573589999694, "postSpotPupil": [0, 282.3867771000005], "rt": 0.4725539999999455, "response_key": "2", "late": true}
{"trialID": {"id": 27, "triggers": [219], "duration": 0.01}, "hemifield": "right", "block": 2, "sequence_number": 28, "delay": 4.47070615423952, "tones": [{"toneNumber": 40, "time": 287.19996349999565, "prePupil": [0, 287.1888015999939], "postPupil": [0, 287.2500724999991]}], "extrakeypresses": [], "coordinates": [12.959306743664179, 4.831970710807461], "preSpotPupil": [0, 287.9169191999972], "startTime": 287.93918269999995, "postSpotPupil": [0, 288.4067907999997], "rt": 0.42710909999732394, "response_key": "2"}
{"trialID": {"id": 28, "triggers": [220], "duration": 0.01}, "hemifield": "right", "block": 2, "sequence_number": 29, "delay": 5.605806586280376, "tones": [{"toneNumber": 41, "time": 292.4346151999998, "prePupil": [0, 292.4232219999976], "postPupil": [0, 292.48472449999826]}], "extrakeypresses": [], "coordinates": [11.604568850065903, 4.004617969038938], "preSpotPupil": [0, 295.0712568999952], "startTime": 295.1070103999955, "postSpotPupil": [0, 295.46801309999864], "rt": 0.3392577999984496, "response_key": "2"}
{"trialID": {"id": 29, "triggers": [221], "duration": 0.01}, "hemifield": "right", "block": 2, "sequence_number": 30, "delay": 9.194942668339902, "tones": [{"toneNumber": 42, "time": 298.3281360999972, "prePupil": [0, 298.31680849999975], "postPupil": [0, 298.3781966999959]}, {"toneNumber": 43, "time": 302.27028209999844, "prePupil": [0, 302.2587330999959], "postPupil": [0, 302.32035449999967]}], "extrakeypresses": [], "coordinates": [2.105119972905287, 7.751300330793567], "preSpotPupil": [0, 305.72273080000014], "startTime": 305.74991690000024, "postSpotPupil": [0, 306.13398009999946], "rt": 0.3247073000020464, "response_key": "2"}
{"trialID": {"id": 30, "triggers": [222], "duration": 0.01}, "hemifield": "right", "block": 2, "sequence_number": 31, "delay": 2.2242787739771845, "tones": [], "extrakeypresses": [], "coordinates": [15.08204925669172, -5.779414367300288], "preSpotPupil": [0, 309.4174815000006], "startTime": 309.43682740000077, "postSpotPupil": [0, 310.42793349999556], "missed": true}
{"trialID": {"id": 31, "triggers": [223], "duration": 0.01}, "hemifield": "right", "block": 2, "sequence_number": 32, "delay": 9.297609111326967, "tones": [{"toneNumber": 44, "time": 312.0486515999946, "prePupil": [0, 312.037205099994], "postPupil": [0, 312.09872370000085]}, {"toneNumber": 45, "time": 316.33478009999817, "prePupil": [0, 316.32271319999563], "postPupil": [0, 316.3848427999983]}, {"toneNumber": 46, "time": 318.97715319999406, "prePupil": [0, 318.9659465000004], "postPupil": [0, 319.02720879999833]}], "extrakeypresses": [], "coordinates": [12.391512972982547, -5.384018943080722], "preSpotPupil": [0, 320.2433913999994], "startTime": 320.26798099999723, "postSpotPupil": [0, 320.7575285999992], "rt": 0.4372912000035285, "response_key": "2"}
{"trialID": {"id": 32, "triggers": [224], "duration": 0.01}, "hemifield": "right", "block": 2, "sequence_number": 33, "delay": 2.9658401606796607, "tones": [], "extrakeypresses": [], "coordinates": [5.738307907764389, 2.351042203834899], "preSpotPupil": [0, 324.7808730999968], "startTime": 324.811091699994, "postSpotPupil": [0, 325.21522879999975], "rt": 0.3532041000071331, "response_key": "2"}
{"trialID": {"id": 33, "triggers": [225], "duration": 0.01}, "hemifield": "right", "block": 2, "sequence_number": 34, "delay": 8.05533799956033, "tones": [{"toneNumber": 47, "time": 327.75244119999843, "prePupil": [0, 327.74043789999996], "postPupil": [0, 327.8025157000011]}, {"toneNumber": 48, "time": 330.88723039999604, "prePupil": [0, 330.87539589999506], "postPupil": [0, 330.93733869999414]}], "extrakeypresses": [], "coordinates": [9.461087972164721, -5.299082344205051], "preSpotPupil": [0, 334.3329354999951], "startTime": 334.35069649999787, "postSpotPupil": [0, 334.776217300001], "rt": 0.39510750000044936, "response_key": "2"}
{"trialID": {"id": 34, "triggers": [226], "duration": 0.01}, "hemifield": "left", "block": 3, "sequence_number": 35, "delay": 2.904122796475786, "tones": [], "extrakeypresses": [], "coordinates": [-6.546905783907638, 4.656732561409198], "preSpotPupil": [0, 341.788773399996], "startTime": 341.8077252000003, "postSpotPupil": [0, 342.2340927999976], "rt": 0.3807306999951834, "response_key": "2"}
{"trialID": {"id": 35, "triggers": [227], "duration": 0.01}, "hemifield": "left", "block": 3, "sequence_number": 36, "delay": 4.3560147830561835, "tones": [{"toneNumber": 49, "time": 344.5605374000006, "prePupil": [0, 344.5489696999939], "postPupil": [0, 344.61061039999913]}], "extrakeypresses": [], "coordinates": [-5.036692028529689, -6.37677465637896], "preSpotPupil": [0, 347.6498957999938], "startTime": 347.68309939999745, "postSpotPupil": [0, 348.12906429999566], "rt": 0.4012376000027871, "response_key": "2"}
{"trialID": {"id": 36, "triggers": [228], "duration": 0.01}, "hemifield": "left", "block": 3, "sequence_number": 37, "delay": 8.347354692697596, "tones": [{"toneNumber": 50, "time": 350.905586199995, "prePupil": [0, 350.8935483999958], "postPupil": [0, 350.95564359999844]}, {"toneNumber": 51, "time": 354.5316782999944, "prePupil": [0, 354.5188322999966], "postPupil": [0, 354.58182079999824]}], "extrakeypresses": [], "coordinates": [-15.743992689293004, 5.216035341410091], "preSpotPupil": [0, 357.5347030999983], "startTime": 357.55677959999593, "postSpotPupil": [0, 358.546858099995], "missed": true}
{"trialID": {"id": 37, "triggers": [229], "duration": 0.01}, "hemifield": "left", "block": 3, "sequence_number": 38, "delay": 3.0404986404680727, "tones": [{"toneNumber": 52, "time": 361.0068616999997, "prePupil": [0, 360.995181899998], "postPupil": [0, 361.056920899995]}], "extrakeypresses": [], "coordinates": [-14.01759101735207, -7.964653674656473], "preSpotPupil": [0, 362.1042779999989], "startTime": 362.1386932999958, "postSpotPupil": [0, 362.66880169999786], "rt": 0.49088299999857554, "response_key": "2", "late": true}
{"trialID": {"id": 38, "triggers": [230], "duration": 0.01}, "hemifield": "left", "block": 3, "sequence_number": 39, "delay": 2.831872130084812, "tones": [], "extrakeypresses": [], "coordinates": [-12.877537020834605, -2.823498322431634], "preSpotPupil": [0, 366.5588404000009], "startTime": 366.5751190999945, "postSpotPupil": [0, 367.0017003999965], "rt": 0.3912084999974468, "response_key": "2"}
{"trialID": {"id": 39, "triggers": [231], "duration": 0.01}, "hemifield": "left", "block": 3, "sequence_number": 40, "delay": 2.8975870211341856, "tones": [], "extrakeypresses": [], "coordinates": [-9.61029272249105, -0.3600589306824684], "preSpotPupil": [0, 370.9600394000008], "startTime": 370.99249019999843, "postSpotPupil": [0, 371.37661579999985], "rt": 0.3529372999983025, "response_key": "2"}
{"trialID": {"id": 40, "triggers": [232], "duration": 0.01}, "hemifield": "left", "block": 3, "sequence_number": 41, "delay": 8.252725268470613, "tones": [{"toneNumber": 53, "time": 376.88303859999723, "prePupil": [0, 376.8706782999943], "postPupil": [0, 376.93314049999753]}, {"toneNumber": 54, "time": 378.8580578999972, "prePupil": [0, 378.8458049999972], "postPupil": [0, 378.9081184999959]}], "extrakeypresses": [], "coordinates": [-8.997768811225617, 2.545069706609665], "preSpotPupil": [0, 380.6844418999972], "startTime": 380.72175169999537, "postSpotPupil": [0, 381.08366269999533], "rt": 0.3176050000038231, "response_key": "2"}
{"trialID": {"id": 41, "triggers": [233], "duration": 0.01}, "hemifield": "left", "block": 3, "sequence_number": 42, "delay": 5.259898937753803, "tones": [{"toneNumber": 55, "time": 386.49447879999934, "prePupil": [0, 386.48266349999903], "postPupil": [0, 386.54454849999456]}], "extrakeypresses": [], "coordinates": [-6.950750883694418, -2.6537473335596253], "preSpotPupil": [0, 387.40225089999876], "startTime": 387.4280523999987, "postSpotPupil": [0, 387.85350639999524], "rt": 0.37849930000083987, "response_key": "2"}
{"trialID": {"id": 42, "triggers": [234], "duration": 0.01}, "hemifield": "left", "block": 3, "sequence_number": 43, "delay": 5.404777606294238, "tones": [{"toneNumber": 56, "time": 392.24098469999444, "prePupil": [0, 392.2292630000011], "postPupil": [0, 392.2910705999966]}], "extrakeypresses": [], "coordinates": [-15.30376433853785, 8.131748704893932], "preSpotPupil": [0, 394.3211630000005], "startTime": 394.3450045999998, "postSpotPupil": [0, 395.3342066999976], "missed": true}
{"trialID": {"id": 43, "triggers": [235], "duration": 0.01}, "hemifield": "left", "block": 3, "sequence_number": 44, "delay": 3.4598235728895403, "tones": [{"toneNumber": 57, "time": 398.59546439999394, "prePupil": [0, 398.58428869999625], "postPupil": [0, 398.6455814000001]}], "extrakeypresses": [], "coordinates": [-2.6142100287993806, 4.354009281595157], "preSpotPupil": [0, 399.31336519999604], "startTime": 399.3420920999997, "postSpotPupil": [0, 400.0190311999977], "rt": 0.6262423000007402, "response_key": "2", "late": true}
{"trialID": {"id": 44, "triggers": [236], "duration": 0.01}, "hemifield": "left", "block": 3, "sequence_number": 45, "delay": 7.148196326509578, "tones": [{"toneNumber": 58, "time": 402.8560159999979, "prePupil": [0, 402.844290999994], "postPupil": [0, 402.9060978999987]}, {"toneNumber": 59, "time": 405.6568174999993, "prePupil": [0, 405.64513859999715], "postPupil": [0, 405.70688099999825]}], "extrakeypresses": [], "coordinates": [-3.347930422358372, 6.167856895760817], "preSpotPupil": [0, 408.2047332000002], "startTime": 408.2385882999952, "postSpotPupil": [0, 408.5803939999969], "rt": 0.2907580000028247, "response_key": "2"}
{"trialID": {"id": 45, "triggers": [237], "duration": 0.01}, "hemifield": "left", "block": 3, "sequence_number": 46, "delay": 6.759605666328746, "tones": [{"toneNumber": 60, "time": 413.97844749999786, "prePupil": [0, 413.9665122000006], "postPupil": [0, 414.0285203999956]}], "extrakeypresses": [], "coordinates": [-1.7990803052928026, 0.8913335306983985], "preSpotPupil": [0, 416.3972761999976], "startTime": 416.42505769999843, "postSpotPupil": [0, 416.82937200000015], "rt": 0.368297299995902, "response_key": "2"}
{"trialID": {"id": 46, "triggers": [238], "duration": 0.01}, "hemifield": "left", "block": 3, "sequence_number": 47, "delay": 7.713459558014968, "tones": [{"toneNumber": 61, "time": 422.2310240000006, "prePupil": [0, 422.2180231999955], "postPupil": [0, 422.2810934999943]}, {"toneNumber": 62, "time": 424.20004259999405, "prePupil": [0, 424.18736579999677], "postPupil": [0, 424.250171599997]}], "extrakeypresses": [], "coordinates": [-7.948850455154135, 4.340880766854536], "preSpotPupil": [0, 425.60270540000056], "startTime": 425.6318811999954, "postSpotPupil": [0, 426.0369137999951], "rt": 0.3644492999956128, "response_key": "2"}
{"trialID": {"id": 47, "triggers": [239], "duration": 0.01}, "hemifield": "left", "block": 3, "sequence_number": 48, "delay": 4.798341896345627, "tones": [{"toneNumber": 63, "time": 428.7797558999955, "prePupil": [0, 428.76793989999715], "postPupil": [0, 428.82984289999877]}], "extrakeypresses": [], "coordinates": [-14.417962723601637, 7.184874375550962], "preSpotPupil": [0, 431.8932796999943], "startTime": 431.9243495999981, "postSpotPupil": [0, 432.9127212999956], "missed": true}
{"trialID": {"id": 48, "triggers": [240], "duration": 0.01}, "hemifield": "left", "block": 3, "sequence_number": 49, "delay": 2.275568300090945, "tones": [], "extrakeypresses": [], "coordinates": [-8.561364655960059, 6.051537657136141], "preSpotPupil": [0, 435.70544349999545], "startTime": 435.7342276999989, "postSpotPupil": [0, 436.0982679999943], "rt": 0.30848790000163717, "response_key": "2"}
{"trialID": {"id": 49, "triggers": [241], "duration": 0.01}, "hemifield": "left", "block": 3, "sequence_number": 50, "delay": 5.464280393993314, "tones": [{"toneNumber": 64, "time": 441.4493517999945, "prePupil": [0, 441.4384079999945], "postPupil": [0, 441.499438699997]}], "extrakeypresses": [], "coordinates": [-13.830488309846025, -0.3919967985117072], "preSpotPupil": [0, 442.6215697999942], "startTime": 442.65107039999566, "postSpotPupil": [0, 443.20115559999977], "rt": 0.5305291999975452, "response_key": "2", "late": true}
{"trialID": {"id": 50, "triggers": [242], "duration": 0.01}, "hemifield": "left", "block": 3, "sequence_number": 51, "delay": 3.317623737083376, "tones": [{"toneNumber": 65, "time": 446.98288799999864, "prePupil": [0, 446.97003779999795], "postPupil": [0, 447.03298240000004]}], "extrakeypresses": [], "coordinates": [-2.4145790990920784, -7.471846267641212], "preSpotPupil": [0, 447.55784549999953], "startTime": 447.5896361999985, "postSpotPupil": [0, 448.01391069999954], "rt": 0.3938196000017342, "response_key": "2"}
{"trialID": {"id": 51, "triggers": [243], "duration": 0.01}, "hemifield": "left", "block": 3, "sequence_number": 52, "delay": 8.766553002552815, "tones": [{"toneNumber": 66, "time": 452.5560800999956, "prePupil": [0, 452.54444409999996], "postPupil": [0, 452.6061458999975]}, {"toneNumber": 67, "time": 454.9492074999944, "prePupil": [0, 454.9383697999947], "postPupil": [0, 454.9993572999956]}], "extrakeypresses": [], "coordinates": [-4.401067895212975, -0.8672683463163455], "preSpotPupil": [0, 457.83691109999927], "startTime": 457.85728969999764, "postSpotPupil": [0, 458.2412062000003], "rt": 0.34820419999596197, "response_key": "2"}
{"trialID": {"id": 52, "triggers": [244], "duration": 0.01}, "hemifield": "right", "block": 4, "sequence_number": 53, "delay": 3.183490876565582, "tones": [], "extrakeypresses": [], "coordinates": [7.226897313304594, -1.4424801172435604], "preSpotPupil": [0, 465.53092489999835], "startTime": 465.5657207999975, "postSpotPupil": [0, 465.9698888999992], "rt": 0.3639668000032543, "response_key": "2"}
{"trialID": {"id": 53, "triggers": [245], "duration": 0.01}, "hemifield": "right", "block": 4, "sequence_number": 54, "delay": 5.908839904151693, "tones": [{"toneNumber": 68, "time": 469.2561859999987, "prePupil": [0, 469.2443234999955], "postPupil": [0, 469.3062484999973]}], "extrakeypresses": [], "coordinates": [5.247153984215628, -0.10766276428847377], "preSpotPupil": [0, 472.93716929999937], "startTime": 472.96063159999903, "postSpotPupil": [0, 473.30211899999995], "rt": 0.3009470000033616, "response_key": "2"}
{"trialID": {"id": 54, "triggers": [246], "duration": 0.01}, "hemifield": "right", "block": 4, "sequence_number": 55, "delay": 2.837357062652459, "tones": [], "extrakeypresses": [], "coordinates": [4.777672245818331, -1.6826520955790718], "preSpotPupil": [0, 477.20179449999705], "startTime": 477.23257889999513, "postSpotPupil": [0, 478.2205876999942], "missed": true}
{"trialID": {"id": 55, "triggers": [247], "duration": 0.01}, "hemifield": "right", "block": 4, "sequence_number": 56, "delay": 7.088750392547963, "tones": [{"toneNumber": 69, "time": 482.81653349999397, "prePupil": [0, 482.804805199994], "postPupil": [0, 482.8665944999957]}], "extrakeypresses": [], "coordinates": [6.054424588645844, 6.272258496847206], "preSpotPupil": [0, 485.82675290000043], "startTime": 485.8526555999997, "postSpotPupil": [0, 486.30058550000103], "rt": 0.40581160000147065, "response_key": "2"}
{"trialID": {"id": 56, "triggers": [248], "duration": 0.01}, "hemifield": "right", "block": 4, "sequence_number": 57, "delay": 6.693161995122406, "tones": [{"toneNumber": 70, "time": 489.6357508000001, "prePupil": [0, 489.62332539999625], "postPupil": [0, 489.68581649999396]}], "extrakeypresses": [], "coordinates": [10.786318913423061, -2.279410175200992], "preSpotPupil": [0, 494.0532804999966], "startTime": 494.08485649999784, "postSpotPupil": [0, 494.4666189999989], "rt": 0.3329100999981165, "response_key": "2"}
{"trialID": {"id": 57, "triggers": [249], "duration": 0.01}, "hemifield": "right", "block": 4, "sequence_number": 58, "delay": 8.043095786382613, "tones": [{"toneNumber": 71, "time": 497.97688399999606, "prePupil": [0, 497.9641543999969], "postPupil": [0, 498.026944499994]}, {"toneNumber": 72, "time": 501.8738899999953, "prePupil": [0, 501.86090979999426], "postPupil": [0, 501.9240819999977]}], "extrakeypresses": [], "coordinates": [3.922772363142215, -8.349607422085532], "preSpotPupil": [0, 503.5696067999961], "startTime": 503.60211770000024, "postSpotPupil": [0, 504.5708660999953], "missed": true}
{"trialID": {"id": 58, "triggers": [250], "duration": 0.01}, "hemifield": "right", "block": 4, "sequence_number": 59, "delay": 3.865072333928402, "tones": [{"toneNumber": 73, "time": 508.28568280000036, "prePupil": [0, 508.27382170000055], "postPupil": [0, 508.33576479999465]}], "extrakeypresses": [], "coordinates": [8.847395018418524, 3.445989152004456], "preSpotPupil": [0, 508.95373649999965], "startTime": 508.9760146999979, "postSpotPupil": [0, 509.6105310999992], "rt": 0.5797620000012103, "response_key": "2", "late": true}
{"trialID": {"id": 59, "triggers": [251], "duration": 0.01}, "hemifield": "right", "block": 4, "sequence_number": 60, "delay": 5.83326880207028, "tones": [{"toneNumber": 74, "time": 513.5588796999946, "prePupil": [0, 513.5474208999949], "postPupil": [0, 513.6089357999954]}], "extrakeypresses": [], "coordinates": [7.9574106966888545, 1.5552335454609825], "preSpotPupil": [0, 516.4848196999956], "startTime": 516.5173935999992, "postSpotPupil": [0, 516.9430470000007], "rt": 0.370428099995479, "response_key": "2"}
{"trialID": {"id": 60, "triggers": [252], "duration": 0.01}, "hemifield": "right", "block": 4, "sequence_number": 61, "delay": 1.8341251749293592, "tones": [], "extrakeypresses": [], "coordinates": [3.6454315095375702, -4.986261972300298], "preSpotPupil": [0, 519.8345205000005], "startTime": 519.848479399996, "postSpotPupil": [0, 520.840305699996], "missed": true}
{"trialID": {"id": 61, "triggers": [253], "duration": 0.01}, "hemifield": "right", "block": 4, "sequence_number": 62, "delay": 3.8989150848414695, "tones": [], "extrakeypresses": [], "coordinates": [5.753658479310231, 2.129277157946058], "preSpotPupil": [0, 525.2566827999981], "startTime": 525.2852536999999, "postSpotPupil": [0, 525.650544199998], "rt": 0.31817929999670014, "response_key": "2"}
{"trialID": {"id": 62, "triggers": [254], "duration": 0.01}, "hemifield": "right", "block": 4, "sequence_number": 63, "delay": 8.608163168388165, "tones": [{"toneNumber": 75, "time": 527.9825940999945, "prePupil": [0, 527.9708581999948], "postPupil": [0, 528.0326571999976]}, {"toneNumber": 76, "time": 531.4228098999956, "prePupil": [0, 531.4103701999993], "postPupil": [0, 531.4728955999963]}, {"toneNumber": 77, "time": 533.0793320999946, "prePupil": [0, 533.0671962999986], "postPupil": [0, 533.1293975000008]}], "extrakeypresses": [], "coordinates": [4.712086148057651, 6.375514100520757], "preSpotPupil": [0, 535.3143877999973], "startTime": 535.3482595999958, "postSpotPupil": [0, 535.7115225999951], "rt": 0.3081547999972827, "response_key": "2"}
{"trialID": {"id": 63, "triggers": [129, 192], "duration": 0.02}, "hemifield": "right", "block": 4, "sequence_number": 64, "delay": 8.862836468009643, "tones": [{"toneNumber": 78, "time": 539.8307608999967, "prePupil": [0, 539.8197031999953], "postPupil": [0, 539.8808394999942]}, {"toneNumber": 79, "time": 544.530820299995, "prePupil": [0, 544.5188456999967], "postPupil": [0, 544.5810042999947]}], "extrakeypresses": [], "coordinates": [10.341937433774364, -0.0865100979008453], "preSpotPupil": [0, 545.643241699996], "startTime": 545.6587498999943, "postSpotPupil": [0, 546.2938413999946], "rt": 0.5897982999958913, "response_key": "2", "late": true}
{"trialID": {"id": 64, "triggers": [129, 193], "duration": 0.02}, "hemifield": "right", "block": 4, "sequence_number": 65, "delay": 4.0664991805856365, "tones": [{"toneNumber": 80, "time": 548.7988942999946, "prePupil": [0, 548.7874948999961], "postPupil": [0, 548.8489707999979]}], "extrakeypresses": [], "coordinates": [11.669137331646821, 3.3902477817234136], "preSpotPupil": [0, 551.4080028999961], "startTime": 551.4296608000004, "postSpotPupil": [0, 551.8140324999986], "rt": 0.3328343999965, "response_key": "2"}
{"trialID": {"id": 65, "triggers": [129, 194], "duration": 0.02}, "hemifield": "right", "block": 4, "sequence_number": 66, "delay": 7.7745214642152405, "tones": [{"toneNumber": 81, "time": 554.4160804999992, "prePupil": [0, 554.4042962999956], "postPupil": [0, 554.4661673999944]}, {"toneNumber": 82, "time": 559.046897799999, "prePupil": [0, 559.0352067999993], "postPupil": [0, 559.0969612999979]}], "extrakeypresses": [], "coordinates": [8.094557027770975, -0.007442582972604583], "preSpotPupil": [0, 560.6627012999961], "startTime": 560.6789757000006, "postSpotPupil": [0, 561.0209969999996], "rt": 0.30551440000272123, "response_key": "2"}
{"trialID": {"id": 66, "triggers": [129, 195], "duration": 0.02}, "hemifield": "right", "block": 4, "sequence_number": 67, "delay": 8.428846747028253, "tones": [{"toneNumber": 83, "time": 564.3190408999944, "prePupil": [0, 564.3073959999965], "postPupil": [0, 564.3691274999946]}, {"toneNumber": 84, "time": 566.910924799995, "prePupil": [0, 566.8997885999997], "postPupil": [0, 566.9609875999959]}], "extrakeypresses": [], "coordinates": [5.494389484530668, -5.5447553470208515], "preSpotPupil": [0, 570.5190342999995], "startTime": 570.5541104000004, "postSpotPupil": [0, 570.9364705999978], "rt": 0.3616440999976476, "response_key": "2"}
{"trialID": {"id": 67, "triggers": [129, 196], "duration": 0.02}, "hemifield": "right", "block": 4, "sequence_number": 68, "delay": 3.9747281791201408, "tones": [], "extrakeypresses": [], "coordinates": [1.3294130978416596, -3.6527695187189586], "preSpotPupil": [0, 575.9830154999945], "startTime": 576.0111325999969, "postSpotPupil": [0, 576.436220399999], "rt": 0.3794574999992619, "response_key": "2"}
{"trialID": {"id": 68, "triggers": [129, 197], "duration": 0.02}, "hemifield": "right", "block": 4, "sequence_number": 69, "delay": 4.2839635532870055, "tones": [{"toneNumber": 85, "time": 578.8747626999975, "prePupil": [0, 578.8627954999974], "postPupil": [0, 578.9248255999992]}], "extrakeypresses": [], "coordinates": [7.399478226622115, 1.896019059659265], "preSpotPupil": [0, 581.7895279000004], "startTime": 581.8229036999983, "postSpotPupil": [0, 582.3102567999958], "rt": 0.45764049999706913, "response_key": "2", "late": true}
{"trialID": {"id": 69, "triggers": [129, 198], "duration": 0.02}, "hemifield": "left", "block": 5, "sequence_number": 70, "delay": 8.650455004092837, "tones": [{"toneNumber": 86, "time": 588.5120736999961, "prePupil": [0, 588.5003900999945], "postPupil": [0, 588.5621743999945]}, {"toneNumber": 87, "time": 592.1892165999961, "prePupil": [0, 592.178018999999], "postPupil": [0, 592.2393194999968]}], "extrakeypresses": [], "coordinates": [-14.04346504765177, -5.486417074871336], "preSpotPupil": [0, 595.1001987999989], "startTime": 595.1346065999969, "postSpotPupil": [0, 596.1028659000003], "missed": true}
{"trialID": {"id": 70, "triggers": [129, 199], "duration": 0.02}, "hemifield": "left", "block": 5, "sequence_number": 71, "delay": 1.6426973951032569, "tones": [], "extrakeypresses": [], "coordinates": [-10.151863385897986, -3.840551928461818], "preSpotPupil": [0, 598.277055599996], "startTime": 598.2994495999956, "postSpotPupil": [0, 598.7045493999976], "rt": 0.36354649999702815, "response_key": "2"}
{"trialID": {"id": 71, "triggers": [129, 200], "duration": 0.02}, "hemifield": "left", "block": 5, "sequence_number": 72, "delay": 2.908316706614695, "tones": [], "extrakeypresses": [], "coordinates": [-14.543400407549468, -7.105952635657918], "preSpotPupil": [0, 602.6828450999965], "startTime": 602.7155662000005, "postSpotPupil": [0, 603.3286829999997], "rt": 0.5748973000008846, "response_key": "2", "late": true}
{"trialID": {"id": 72, "triggers": [129, 201], "duration": 0.02}, "hemifield": "left", "block": 5, "sequence_number": 73, "delay": 3.693399544632314, "tones": [{"toneNumber": 88, "time": 607.0203168999942, "prePupil": [0, 607.0087092999966], "postPupil": [0, 607.0703873999955]}], "extrakeypresses": [606.4696850999972], "coordinates": [-10.357090060325085, -5.539668633425496], "preSpotPupil": [0, 608.0695663999941], "startTime": 608.0905734999978, "postSpotPupil": [0, 608.4738299999954], "rt": 0.35793000000558095, "response_key": "2"}
{"trialID": {"id": 73, "triggers": [129, 202], "duration": 0.02}, "hemifield": "left", "block": 5, "sequence_number": 74, "delay": 4.505717830549082, "tones": [], "extrakeypresses": [], "coordinates": [-14.635177534445042, -4.195410789108946], "preSpotPupil": [0, 614.048787199994], "startTime": 614.0690862999982, "postSpotPupil": [0, 614.8273220999981], "rt": 0.7213938999993843, "response_key": "2", "late": true}
{"trialID": {"id": 74, "triggers": [129, 203], "duration": 0.02}, "hemifield": "left", "block": 5, "sequence_number": 75, "delay": 5.8205819506282905, "tones": [{"toneNumber": 89, "time": 618.4148724999977, "prePupil": [0, 618.4031404999987], "postPupil": [0, 618.4649556000004]}], "extrakeypresses": [], "coordinates": [-12.62041762391062, 6.350212871528383], "preSpotPupil": [0, 621.6978844999976], "startTime": 621.7127449999971, "postSpotPupil": [0, 622.2225611999966], "rt": 0.4669805000012275, "response_key": "2"}
{"trialID": {"id": 75, "triggers": [129, 204], "duration": 0.02}, "hemifield": "left", "block": 5, "sequence_number": 76, "delay": 5.19535293977728, "tones": [{"toneNumber": 90, "time": 624.7190511000008, "prePupil": [0, 624.706880400001], "postPupil": [0, 624.7691185000003]}], "extrakeypresses": [], "coordinates": [-1.6563205047728626, -2.5362326984905517], "preSpotPupil": [0, 628.4854980999953], "startTime": 628.5043972999993, "postSpotPupil": [0, 628.5968697999997], "rt": 0.03309140000055777, "response_key": "2"}
{"trialID": {"id": 76, "triggers": [129, 205], "duration": 0.02}, "hemifield": "left", "block": 5, "sequence_number": 77, "delay": 7.94127552204926, "tones": [{"toneNumber": 91, "time": 632.3987883000009, "prePupil": [0, 632.3869935999974], "postPupil": [0, 632.448851000001]}, {"toneNumber": 92, "time": 635.168995, "prePupil": [0, 635.1573399999979], "postPupil": [0, 635.2190628999961]}], "extrakeypresses": [], "coordinates": [-7.830634126981204, -8.018922863736657], "preSpotPupil": [0, 637.7324335999947], "startTime": 637.7543468000003, "postSpotPupil": [0, 638.1583039999969], "rt": 0.35617679999995744, "response_key": "2"}
{"trialID": {"id": 77, "triggers": [129, 206], "duration": 0.02}, "hemifield": "left", "block": 5, "sequence_number": 78, "delay": 3.9778141686154296, "tones": [], "extrakeypresses": [], "coordinates": [-11.28535336672288, 2.6770565932735977], "preSpotPupil": [0, 643.2051538999949], "startTime": 643.2323405999996, "postSpotPupil": [0, 643.7201692999952], "rt": 0.4552064000017708, "response_key": "2"}
{"trialID": {"id": 78, "triggers": [129, 207], "duration": 0.02}, "hemifield": "left", "block": 5, "sequence_number": 79, "delay": 6.611912135378445, "tones": [{"toneNumber": 93, "time": 647.9967341999945, "prePupil": [0, 647.984979599998], "postPupil": [0, 648.0468047999966]}], "extrakeypresses": [], "coordinates": [-9.521631064663612, 7.686215085823948], "preSpotPupil": [0, 651.4062860999984], "startTime": 651.4409948999964, "postSpotPupil": [0, 651.8859674999985], "rt": 0.3916308999978355, "response_key": "2"}
{"trialID": {"id": 79, "triggers": [129, 208], "duration": 0.02}, "hemifield": "left", "block": 5, "sequence_number": 80, "delay": 3.744292084225507, "tones": [{"toneNumber": 94, "time": 655.609732500001, "prePupil": [0, 655.5987842999966], "postPupil": [0, 655.6598068999956]}], "extrakeypresses": [], "coordinates": [-4.019200377006966, 8.10204146718351], "preSpotPupil": [0, 656.7014479999998], "startTime": 656.7312007, "postSpotPupil": [0, 657.1770523999949], "rt": 0.3985303000008571, "response_key": "2"}
{"trialID": {"id": 80, "triggers": [129, 209], "duration": 0.02}, "hemifield": "left", "block": 5, "sequence_number": 81, "delay": 9.483160383428014, "tones": [{"toneNumber": 95, "time": 662.6110225999946, "prePupil": [0, 662.5985381999999], "postPupil": [0, 662.661110999994]}, {"toneNumber": 96, "time": 665.0381217999966, "prePupil": [0, 665.0263713999957], "postPupil": [0, 665.0882255999968]}], "extrakeypresses": [], "coordinates": [-8.630720319598845, -7.477349609999791], "preSpotPupil": [0, 667.7328531999956], "startTime": 667.7502766999969, "postSpotPupil": [0, 668.3631988999987], "rt": 0.5704840000034892, "response_key": "2", "late": true}
{"trialID": {"id": 81, "triggers": [129, 210], "duration": 0.02}, "hemifield": "left", "block": 5, "sequence_number": 82, "delay": 1.7980755772479675, "tones": [], "extrakeypresses": [], "coordinates": [-8.679269892332794, -8.597879779236848], "preSpotPupil": [0, 671.2094033999965], "startTime": 671.2278392999942, "postSpotPupil": [0, 672.2187045999963], "missed": true}
{"trialID": {"id": 82, "triggers": [129, 211], "duration": 0.02}, "hemifield": "left", "block": 5, "sequence_number": 83, "delay": 8.66979046931717, "tones": [{"toneNumber": 97, "time": 675.6277469999986, "prePupil": [0, 675.615484599999], "postPupil": [0, 675.6778276999976]}, {"toneNumber": 98, "time": 680.2235778999966, "prePupil": [0, 680.2121226999952], "postPupil": [0, 680.2736780999985]}], "extrakeypresses": [], "coordinates": [-12.094067176700797, -0.8486581468498562], "preSpotPupil": [0, 681.4174764999989], "startTime": 681.434760600001, "postSpotPupil": [0, 682.4263140999974], "missed": true}
{"trialID": {"id": 83, "triggers": [129, 212], "duration": 0.02}, "hemifield": "left", "block": 5, "sequence_number": 84, "delay": 2.98992303050768, "tones": [{"toneNumber": 99, "time": 685.2742379999981, "prePupil": [0, 685.2624896999987], "postPupil": [0, 685.3243313999992]}], "extrakeypresses": [], "coordinates": [-6.291744756151985, 1.5322877753189008], "preSpotPupil": [0, 685.9453406999964], "startTime": 685.9762549000006, "postSpotPupil": [0, 686.9461022999967], "missed": true}
{"trialID": {"id": 84, "triggers": [129, 213], "duration": 0.02}, "hemifield": "left", "block": 5, "sequence_number": 85, "delay": 2.1690911388304137, "tones": [], "extrakeypresses": [], "coordinates": [-10.711769779479386, 7.640421710733394], "preSpotPupil": [0, 689.6453834999993], "startTime": 689.6627737999952, "postSpotPupil": [0, 690.0687154999978], "rt": 0.3727973999993992, "response_key": "2"}
{"trialID": {"id": 85, "triggers": [129, 214], "duration": 0.02}, "hemifield": "left", "block": 5, "sequence_number": 86, "delay": 9.094842066745791, "tones": [{"toneNumber": 100, "time": 692.7322333999982, "prePupil": [0, 692.7218408999979], "postPupil": [0, 692.782286499998]}, {"toneNumber": 101, "time": 694.7402259999944, "prePupil": [0, 694.7290866999974], "postPupil": [0, 694.790299399996]}], "extrakeypresses": [], "coordinates": [-13.786308795989607, 8.329539133578288], "preSpotPupil": [0, 700.2329122999945], "startTime": 700.2667072999975, "postSpotPupil": [0, 701.2359844999955], "missed": true}
{"trialID": {"id": 86, "triggers": [129, 215], "duration": 0.02}, "hemifield": "left", "block": 5, "sequence_number": 87, "delay": 5.321253001978884, "tones": [{"toneNumber": 102, "time": 705.5598450999969, "prePupil": [0, 705.548212499998], "postPupil": [0, 705.609921700001]}], "extrakeypresses": [], "coordinates": [-11.57107352537095, -0.25392017177938797], "preSpotPupil": [0, 707.0866169000001], "startTime": 707.1198234999974, "postSpotPupil": [0, 707.5461123999994], "rt": 0.37826810000115074, "response_key": "2"}
{"trialID": {"id": 87, "triggers": [129, 216], "duration": 0.02}, "hemifield": "right", "block": 6, "sequence_number": 88, "delay": 9.357346595308247, "tones": [{"toneNumber": 103, "time": 715.2192360999979, "prePupil": [0, 715.2074442999947], "postPupil": [0, 715.2693098999953]}, {"toneNumber": 104, "time": 719.3691093999951, "prePupil": [0, 719.356973599999], "postPupil": [0, 719.4191810999982]}], "extrakeypresses": [], "coordinates": [14.647271476089738, 0.018510291516285804], "preSpotPupil": [0, 721.0435051999957], "startTime": 721.0776562999963, "postSpotPupil": [0, 721.6692638999957], "rt": 0.5493913999962388, "response_key": "2", "late": true}
{"trialID": {"id": 88, "triggers": [129, 217], "duration": 0.02}, "hemifield": "right", "block": 6, "sequence_number": 89, "delay": 5.007574294317736, "tones": [{"toneNumber": 105, "time": 725.6680319000006, "prePupil": [0, 725.6560110999999], "postPupil": [0, 725.7180955000003]}], "extrakeypresses": [], "coordinates": [10.163109251484745, -8.432006916275693], "preSpotPupil": [0, 727.7273476999981], "startTime": 727.7428326000008, "postSpotPupil": [0, 728.733034799996], "missed": true}
{"trialID": {"id": 89, "triggers": [129, 218], "duration": 0.02}, "hemifield": "right", "block": 6, "sequence_number": 90, "delay": 9.244146287794173, "tones": [{"toneNumber": 106, "time": 733.7431636999972, "prePupil": [0, 733.7306831999958], "postPupil": [0, 733.793233599994]}, {"toneNumber": 107, "time": 736.3568300999978, "prePupil": [0, 736.3451279000001], "postPupil": [0, 736.4069935999942]}], "extrakeypresses": [], "coordinates": [13.67647219393979, -7.190361865635146], "preSpotPupil": [0, 738.5073548], "startTime": 738.5324125999978, "postSpotPupil": [0, 739.5231994999995], "missed": true}
{"trialID": {"id": 90, "triggers": [129, 219], "duration": 0.02}, "hemifield": "right", "block": 6, "sequence_number": 91, "delay": 4.5179564652482735, "tones": [], "extrakeypresses": [], "coordinates": [9.81319060311017, -2.1506047825788057], "preSpotPupil": [0, 744.5706809999974], "startTime": 744.5942604999946, "postSpotPupil": [0, 745.0417683999985], "rt": 0.42370849999861093, "response_key": "2"}
{"trialID": {"id": 91, "triggers": [129, 220], "duration": 0.02}, "hemifield": "right", "block": 6, "sequence_number": 92, "delay": 4.33233850880221, "tones": [{"toneNumber": 108, "time": 748.4398612000005, "prePupil": [0, 748.4282977999974], "postPupil": [0, 748.4899512999982]}], "extrakeypresses": [], "coordinates": [6.810410536590742, -8.144526761604507], "preSpotPupil": [0, 750.444849499996], "startTime": 750.4717299999975, "postSpotPupil": [0, 751.1035474999953], "rt": 0.5899887000050512, "response_key": "2", "late": true}
{"trialID": {"id": 92, "triggers": [129, 221], "duration": 0.02}, "hemifield": "right", "block": 6, "sequence_number": 93, "delay": 6.073321663686693, "tones": [{"toneNumber": 109, "time": 755.8429931999999, "prePupil": [0, 755.8300419000007], "postPupil": [0, 755.8930825999996]}, {"toneNumber": 110, "time": 757.484727899995, "prePupil": [0, 757.4731126999977], "postPupil": [0, 757.5348159999994]}], "extrakeypresses": [], "coordinates": [9.097019095157593, -1.935111245623677], "preSpotPupil": [0, 758.2238585999949], "startTime": 758.2383633999998, "postSpotPupil": [0, 758.7277631999968], "rt": 0.4449187999998685, "response_key": "2"}
{"trialID": {"id": 93, "triggers": [129, 222], "duration": 0.02}, "hemifield": "right", "block": 6, "sequence_number": 94, "delay": 8.840933468337322, "tones": [{"toneNumber": 111, "time": 762.3032606999986, "prePupil": [0, 762.2916746999981], "postPupil": [0, 762.353389799995]}, {"toneNumber": 112, "time": 764.1978004999983, "prePupil": [0, 764.1854882999978], "postPupil": [0, 764.2478598999951]}, {"toneNumber": 113, "time": 768.0945671999943, "prePupil": [0, 768.0828653999997], "postPupil": [0, 768.1446749999959]}], "extrakeypresses": [], "coordinates": [11.408173087716394, -5.260548528816879], "preSpotPupil": [0, 768.6451177999988], "startTime": 768.6753202999971, "postSpotPupil": [0, 769.6662404999952], "missed": true}
{"trialID": {"id": 94, "triggers": [129, 223], "duration": 0.02}, "hemifield": "right", "block": 6, "sequence_number": 95, "delay": 7.97887200221923, "tones": [{"toneNumber": 114, "time": 774.2033563000005, "prePupil": [0, 774.191106899998], "postPupil": [0, 774.2534425999984]}], "extrakeypresses": [], "coordinates": [1.563328203595892, -4.656257208169128], "preSpotPupil": [0, 778.177122000001], "startTime": 778.1939302999963, "postSpotPupil": [0, 778.5794511999993], "rt": 0.33672049999586307, "response_key": "2"}
{"trialID": {"id": 95, "triggers": [129, 224], "duration": 0.02}, "hemifield": "right", "block": 6, "sequence_number": 96, "delay": 9.221266065818673, "tones": [{"toneNumber": 115, "time": 781.0735051999945, "prePupil": [0, 781.0608537999942], "postPupil": [0, 781.1236088000005]}, {"toneNumber": 116, "time": 784.535752799995, "prePupil": [0, 784.5238376999987], "postPupil": [0, 784.5858430000008]}, {"toneNumber": 117, "time": 787.7591200999959, "prePupil": [0, 787.7478091999947], "postPupil": [0, 787.8091815999942]}], "extrakeypresses": [], "coordinates": [3.693226621841214, 7.7526899228316974], "preSpotPupil": [0, 788.8721860000005], "startTime": 788.9030586000008, "postSpotPupil": [0, 789.8925108999974], "missed": true}
{"trialID": {"id": 96, "triggers": [129, 225], "duration": 0.02}, "hemifield": "right", "block": 6, "sequence_number": 97, "delay": 6.784887520269399, "tones": [{"toneNumber": 118, "time": 793.9058889000007, "prePupil": [0, 793.8931760999985], "postPupil": [0, 793.9559827999983]}], "extrakeypresses": [], "coordinates": [6.482984612130384, 2.5426239197035443], "preSpotPupil": [0, 797.2074540999965], "startTime": 797.2345490999942, "postSpotPupil": [0, 797.8690943999973], "rt": 0.5762468999964767, "response_key": "2", "late": true}
{"trialID": {"id": 97, "triggers": [129, 226], "duration": 0.02}, "hemifield": "right", "block": 6, "sequence_number": 98, "delay": 5.863437004713279, "tones": [{"toneNumber": 119, "time": 803.300971699995, "prePupil": [0, 803.2891079999972], "postPupil": [0, 803.3510504000005]}], "extrakeypresses": [], "coordinates": [2.9078872552100536, 3.566697737721114], "preSpotPupil": [0, 804.7810717999964], "startTime": 804.7954705999946, "postSpotPupil": [0, 805.243266599995], "rt": 0.3921614999999292, "response_key": "2"}
{"trialID": {"id": 98, "triggers": [129, 227], "duration": 0.02}, "hemifield": "right", "block": 6, "sequence_number": 99, "delay": 7.395268357399786, "tones": [{"toneNumber": 120, "time": 810.748348999994, "prePupil": [0, 810.7371815000006], "postPupil": [0, 810.7984557999953]}, {"toneNumber": 121, "time": 812.8839303999994, "prePupil": [0, 812.8721351999993], "postPupil": [0, 812.9340062999981]}], "extrakeypresses": [], "coordinates": [5.534970082119561, -4.5582567296324425], "preSpotPupil": [0, 813.7092906999969], "startTime": 813.732820499994, "postSpotPupil": [0, 813.7629077999954], "rt": -0.5381459999989602, "response_key": "2"}
{"trialID": {"id": 99, "triggers": [129, 228], "duration": 0.02}, "hemifield": "right", "block": 6, "sequence_number": 100, "delay": 7.9460954306171345, "tones": [{"toneNumber": 122, "time": 817.5848559000005, "prePupil": [0, 817.5722004999989], "postPupil": [0, 817.6349571999963]}, {"toneNumber": 123, "time": 819.8373513999977, "prePupil": [0, 819.8255724999981], "postPupil": [0, 819.8874107999945]}, {"toneNumber": 124, "time": 821.7642008999974, "prePupil": [0, 821.7521561999965], "postPupil": [0, 821.8142621999941]}], "extrakeypresses": [], "coordinates": [10.035493180587427, -1.4905036717415312], "preSpotPupil": [0, 822.9006829999998], "startTime": 822.9185251999952, "postSpotPupil": [0, 823.574320599997], "rt": 0.6121227000039653, "response_key": "2", "late": true}
{"trialID": {"id": 100, "triggers": [129, 229], "duration": 0.02}, "hemifield": "right", "block": 6, "sequence_number": 101, "delay": 4.1264020729770445, "tones": [{"toneNumber": 125, "time": 826.9042858999965, "prePupil": [0, 826.892900699997], "postPupil": [0, 826.9543491000004]}], "extrakeypresses": [], "coordinates": [10.302256521353092, -4.367078832612358], "preSpotPupil": [0, 828.7496912999995], "startTime": 828.7728496999989, "postSpotPupil": [0, 829.1989033999998], "rt": 0.3687236000041594, "response_key": "2"}
{"trialID": {"id": 101, "triggers": [129, 230], "duration": 0.02}, "hemifield": "right", "block": 6, "sequence_number": 102, "delay": 2.4363444478789207, "tones": [], "extrakeypresses": [], "coordinates": [14.798788495150704, 8.386963620107617], "preSpotPupil": [0, 832.7078354999976], "startTime": 832.7318297999955, "postSpotPupil": [0, 833.7203718999954], "missed": true}
