{"trialID": {"id": 0, "triggers": [192], "duration": 0.01}, "hemifield": "left", "block": 1, "sequence_number": 1, "delay": 5.008499627264759, "tones": [{"toneNumber": 0, "time": 95.55413299999782, "prePupil": [0, 95.54240940000454], "postPupil": [0, 95.60419230000116]}], "extrakeypresses": [91.75194000000192], "coordinates": [-14.630792896155567, 1.926714229721485], "preSpotPupil": [0, 97.21473979999428], "startTime": 97.23390160000417, "postSpotPupil": [0, 97.76367929999833], "rt": 0.5004489000129979, "response_key": "4", "late": true}
{"trialID": {"id": 1, "triggers": [193], "duration": 0.01}, "hemifield": "left", "block": 1, "sequence_number": 2, "delay": 3.2122106792575966, "tones": [{"toneNumber": 1, "time": 100.89550670000608, "prePupil": [0, 100.88366839999799], "postPupil": [0, 100.94556269999885]}], "extrakeypresses": [], "coordinates": [-11.291612180414162, -6.459629529769678], "preSpotPupil": [0, 102.01518669999496], "startTime": 102.04686329999822, "postSpotPupil": [0, 102.55525020000641], "rt": 0.45177980000153184, "response_key": "4", "late": true}
{"trialID": {"id": 2, "triggers": [194], "duration": 0.01}, "hemifield": "left", "block": 1, "sequence_number": 3, "delay": 6.981424648182875, "tones": [{"toneNumber": 2, "time": 107.95941169999423, "prePupil": [0, 107.94649030000437], "postPupil": [0, 108.0094739000051]}, {"toneNumber": 3, "time": 109.55137780000223, "prePupil": [0, 109.53963929999736], "postPupil": [0, 109.60147730000608]}], "extrakeypresses": [], "coordinates": [-7.993989484300501, -0.8711846436445949], "preSpotPupil": [0, 110.60805229999823], "startTime": 110.62938009999925, "postSpotPupil": [0, 111.07503059999726], "rt": 0.39417250000406057, "response_key": "4"}
{"trialID": {"id": 3, "triggers": [195], "duration": 0.01}, "hemifield": "left", "block": 1, "sequence_number": 4, "delay": 7.843094078837577, "tones": [{"toneNumber": 4, "time": 115.25402419999591, "prePupil": [0, 115.24193960000412], "postPupil": [0, 115.30411680000543]}, {"toneNumber": 5, "time": 117.97003009999753, "prePupil": [0, 117.95824829999765], "postPupil": [0, 118.0200993000035]}], "extrakeypresses": [], "coordinates": [-7.220418231616023, 6.827300179957181], "preSpotPupil": [0, 119.97826780000469], "startTime": 120.00292850000551, "postSpotPupil": [0, 120.49053880000429], "rt": 0.4426804999966407, "response_key": "4"}
{"trialID": {"id": 4, "triggers": [196], "duration": 0.01}, "hemifield": "left", "block": 1, "sequence_number": 5, "delay": 7.408548188499457, "tones": [{"toneNumber": 6, "time": 123.63203350000549, "prePupil": [0, 123.62019190000137], "postPupil": [0, 123.68210039999394]}, {"toneNumber": 7, "time": 126.79635839999537, "prePupil": [0, 126.78491699999722], "postPupil": [0, 126.8464335000026]}], "extrakeypresses": [], "coordinates": [-14.64795574594247, 4.364824302830634], "preSpotPupil": [0, 128.95857459999388], "startTime": 128.98026070000196, "postSpotPupil": [0, 129.55194809999375], "rt": 0.5165335000056075, "response_key": "4", "late": true}
{"trialID": {"id": 5, "triggers": [197], "duration": 0.01}, "hemifield": "left", "block": 1, "sequence_number": 6, "delay": 7.672447536690871, "tones": [{"toneNumber": 8, "time": 131.9761096000002, "prePupil": [0, 131.9648251000035], "postPupil": [0, 132.02622519999568]}, {"toneNumber": 9, "time": 133.85181370000646, "prePupil": [0, 133.83974039999885], "postPupil": [0, 133.90187859999423]}, {"toneNumber": 10, "time": 135.53032239999447, "prePupil": [0, 135.5184939000028], "postPupil": [0, 135.5810494000034]}], "extrakeypresses": [], "coordinates": [-3.2041254354287574, -5.929215030719045], "preSpotPupil": [0, 138.2647597000032], "startTime": 138.294590599995, "postSpotPupil": [0, 138.69668330000422], "rt": 0.3618653000012273, "response_key": "4"}
{"trialID": {"id": 6, "triggers": [198], "duration": 0.01}, "hemifield": "left", "block": 1, "sequence_number": 7, "delay": 8.699371688924629, "tones": [{"toneNumber": 11, "time": 142.5017305000074, "prePupil": [0, 142.48897649999708], "postPupil": [0, 142.55185139999958]}, {"toneNumber": 12, "time": 144.6269528999983, "prePupil": [0, 144.61577400000533], "postPupil": [0, 144.67703900000197]}, {"toneNumber": 13, "time": 146.4714418000076, "prePupil": [0, 146.45839220000198], "postPupil": [0, 146.52154689999588]}], "extrakeypresses": [], "coordinates": [-11.846161907691583, 6.580773527294619], "preSpotPupil": [0, 148.45557210000698], "startTime": 148.47944229999848, "postSpotPupil": [0, 149.19575539999641], "rt": 0.6642468999925768, "response_key": "4", "late": true}
{"trialID": {"id": 7, "triggers": [199], "duration": 0.01}, "hemifield": "left", "block": 1, "sequence_number": 8, "delay": 6.782114738305331, "tones": [{"toneNumber": 14, "time": 154.18225549999624, "prePupil": [0, 154.16935120000562], "postPupil": [0, 154.2323178999941]}], "extrakeypresses": [], "coordinates": [-8.883372499968385, 1.1495747024252623], "preSpotPupil": [0, 157.01665839999623], "startTime": 157.0399305000028, "postSpotPupil": [0, 157.46572360000573], "rt": 0.38174919999437407, "response_key": "4"}
{"trialID": {"id": 8, "triggers": [200], "duration": 0.01}, "hemifield": "left", "block": 1, "sequence_number": 9, "delay": 8.043865434275201, "tones": [{"toneNumber": 15, "time": 159.90075689999503, "prePupil": [0, 159.88784690000466], "postPupil": [0, 159.950820500002]}, {"toneNumber": 16, "time": 161.72805530000187, "prePupil": [0, 161.7161022999935], "postPupil": [0, 161.77814809999836]}], "extrakeypresses": [], "coordinates": [-13.478864687555284, -8.393366624666225], "preSpotPupil": [0, 166.56847739999648], "startTime": 166.6028374000016, "postSpotPupil": [0, 166.797665399994], "rt": 0.14216870001109783, "response_key": "4"}
{"trialID": {"id": 9, "triggers": [201], "duration": 0.01}, "hemifield": "left", "block": 1, "sequence_number": 10, "delay": 4.737345272662339, "tones": [{"toneNumber": 17, "time": 169.93626519999816, "prePupil": [0, 169.9237340999971], "postPupil": [0, 169.98634210000455]}], "extrakeypresses": [], "coordinates": [-13.326297364758663, 8.093243577603753], "preSpotPupil": [0, 172.59482169999683], "startTime": 172.62125460000243, "postSpotPupil": [0, 173.61081539999577], "missed": true}
{"trialID": {"id": 10, "triggers": [202], "duration": 0.01}, "hemifield": "left", "block": 1, "sequence_number": 11, "delay": 8.259663745272789, "tones": [{"toneNumber": 18, "time": 175.83462969999528, "prePupil": [0, 175.82243919999746], "postPupil": [0, 175.88470359999337]}, {"toneNumber": 19, "time": 177.73198080000293, "prePupil": [0, 177.71975740000198], "postPupil": [0, 177.78205470000103]}, {"toneNumber": 20, "time": 180.8281774000061, "prePupil": [0, 180.81636110000545], "postPupil": [0, 180.8782474000036]}], "extrakeypresses": [], "coordinates": [-8.073031792927413, -1.251083050091487], "preSpotPupil": [0, 182.39159939999809], "startTime": 182.41093759999785, "postSpotPupil": [0, 182.96239070000593], "rt": 0.5060063999990234, "response_key": "4", "late": true}
{"trialID": {"id": 11, "triggers": [203], "duration": 0.01}, "hemifield": "left", "block": 1, "sequence_number": 12, "delay": 6.2601773024966265, "tones": [{"toneNumber": 21, "time": 187.95766440000443, "prePupil": [0, 187.94583969999803], "postPupil": [0, 188.00773460000346]}], "extrakeypresses": [], "coordinates": [-6.151352088425952, -8.147523603267182], "preSpotPupil": [0, 190.26247010000225], "startTime": 190.28662719999556, "postSpotPupil": [0, 190.83671210000466], "rt": 0.5009276999917347, "response_key": "4", "late": true}
{"trialID": {"id": 12, "triggers": [204], "duration": 0.01}, "hemifield": "left", "block": 1, "sequence_number": 13, "delay": 8.142461201602151, "tones": [{"toneNumber": 22, "time": 194.56482339999638, "prePupil": [0, 194.55212599999504], "postPupil": [0, 194.61489450000226]}, {"toneNumber": 23, "time": 198.11955810000654, "prePupil": [0, 198.10751469999377], "postPupil": [0, 198.16963370000303]}], "extrakeypresses": [], "coordinates": [-8.248742645486985, -2.285433969004311], "preSpotPupil": [0, 200.01504359999672], "startTime": 200.03390070000023, "postSpotPupil": [0, 200.41868780000368], "rt": 0.3397781999956351, "response_key": "4"}
{"trialID": {"id": 13, "triggers": [205], "duration": 0.01}, "hemifield": "left", "block": 1, "sequence_number": 14, "delay": 3.7697029490386225, "tones": [{"toneNumber": 24, "time": 203.82443510000303, "prePupil": [0, 203.81231599999592], "postPupil": [0, 203.87458129999868]}], "extrakeypresses": [], "coordinates": [-8.181491723208842, 0.668808442046954], "preSpotPupil": [0, 205.24666020000586], "startTime": 205.2630719000008, "postSpotPupil": [0, 205.91823530000693], "rt": 0.6015117000060854, "response_key": "4", "late": true}
{"trialID": {"id": 14, "triggers": [206], "duration": 0.01}, "hemifield": "left", "block": 1, "sequence_number": 15, "delay": 8.339705260759613, "tones": [{"toneNumber": 25, "time": 208.5710362999962, "prePupil": [0, 208.55857389999437], "postPupil": [0, 208.62109919999784]}, {"toneNumber": 26, "time": 210.7356945000065, "prePupil": [0, 210.7242874999938], "postPupil": [0, 210.7858547999931]}, {"toneNumber": 27, "time": 213.21448949999467, "prePupil": [0, 213.2021692999988], "postPupil": [0, 213.26456619999954]}], "extrakeypresses": [], "coordinates": [-7.339318793600892, -8.075433805425966], "preSpotPupil": [0, 215.29656430000614], "startTime": 215.32562089999556, "postSpotPupil": [0, 215.83359829999972], "rt": 0.4561364999972284, "response_key": "4"}
{"trialID": {"id": 15, "triggers": [207], "duration": 0.01}, "hemifield": "right", "block": 2, "sequence_number": 16, "delay": 5.190660132276196, "tones": [{"toneNumber": 28, "time": 222.8444562999939, "prePupil": [0, 222.832554099994], "postPupil": [0, 222.89454090000072]}], "extrakeypresses": [], "coordinates": [9.169850325524008, 3.5430397950689105], "preSpotPupil": [0, 225.13239369999792], "startTime": 225.15765510000347, "postSpotPupil": [0, 225.66591490000428], "rt": 0.460863900007098, "response_key": "4"}
{"trialID": {"id": 16, "triggers": [208], "duration": 0.01}, "hemifield": "right", "block": 2, "sequence_number": 17, "delay": 1.6468531225852496, "tones": [], "extrakeypresses": [], "coordinates": [15.137544037252681, -1.4430320976953066], "preSpotPupil": [0, 228.37013039999874], "startTime": 228.40685709999525, "postSpotPupil": [0, 229.37518180000188], "missed": true}
{"trialID": {"id": 17, "triggers": [209], "duration": 0.01}, "hemifield": "right", "block": 2, "sequence_number": 18, "delay": 7.824549159871324, "tones": [{"toneNumber": 29, "time": 233.76154019999376, "prePupil": [0, 233.74954459999572], "postPupil": [0, 233.81160190000082]}], "extrakeypresses": [], "coordinates": [2.3888258990382303, 6.155537686543575], "preSpotPupil": [0, 237.71582040000067], "startTime": 237.73851700000523, "postSpotPupil": [0, 238.20611529999587], "rt": 0.41567960000247695, "response_key": "4"}
{"trialID": {"id": 18, "triggers": [210], "duration": 0.01}, "hemifield": "right", "block": 2, "sequence_number": 19, "delay": 2.1785723673308572, "tones": [], "extrakeypresses": [], "coordinates": [4.558241409413236, -1.597684587978546], "preSpotPupil": [0, 241.44528850000643], "startTime": 241.46777380000276, "postSpotPupil": [0, 242.14327879999473], "rt": 0.6289335000037681, "response_key": "4", "late": true}
{"trialID": {"id": 19, "triggers": [211], "duration": 0.01}, "hemifield": "right", "block": 2, "sequence_number": 20, "delay": 4.800153386728556, "tones": [{"toneNumber": 30, "time": 246.53235120000318, "prePupil": [0, 246.51987279999594], "postPupil": [0, 246.58242510000127]}], "extrakeypresses": [], "coordinates": [4.963530124876675, -5.070713066712395], "preSpotPupil": [0, 247.97911739999836], "startTime": 248.00871579999512, "postSpotPupil": [0, 248.57986149999488], "rt": 0.5268892999883974, "response_key": "4", "late": true}
{"trialID": {"id": 20, "triggers": [212], "duration": 0.01}, "hemifield": "right", "block": 2, "sequence_number": 21, "delay": 7.742025747248615, "tones": [{"toneNumber": 31, "time": 251.21691669999564, "prePupil": [0, 251.20501180000429], "postPupil": [0, 251.26698440000473]}, {"toneNumber": 32, "time": 255.06368950000615, "prePupil": [0, 255.05148019999615], "postPupil": [0, 255.1137713000062]}, {"toneNumber": 33, "time": 256.67169920000015, "prePupil": [0, 256.6597175000061], "postPupil": [0, 256.72182109999994]}], "extrakeypresses": [], "coordinates": [11.67766965379101, -3.853251779607475], "preSpotPupil": [0, 257.360228599995], "startTime": 257.3814347000007, "postSpotPupil": [0, 258.37208260000625], "missed": true}
{"trialID": {"id": 21, "triggers": [213], "duration": 0.01}, "hemifield": "right", "block": 2, "sequence_number": 22, "delay": 2.79136073990108, "tones": [{"toneNumber": 34, "time": 260.4329551999981, "prePupil": [0, 260.42030630000227], "postPupil": [0, 260.4830182000005]}], "extrakeypresses": [], "coordinates": [5.869432924158713, 3.9771768849876956], "preSpotPupil": [0, 261.6822109000059], "startTime": 261.7164094000036, "postSpotPupil": [0, 262.1615657000075], "rt": 0.3942562000011094, "response_key": "4"}
{"trialID": {"id": 22, "triggers": [214], "duration": 0.01}, "hemifield": "right", "block": 2, "sequence_number": 23, "delay": 6.23162908985284, "tones": [{"toneNumber": 35, "time": 264.83113809999486, "prePupil": [0, 264.8181162999972], "postPupil": [0, 264.8812006999942]}], "extrakeypresses": [], "coordinates": [7.475920332795892, -7.065883807293293], "preSpotPupil": [0, 269.45208889999776], "startTime": 269.4863389999955, "postSpotPupil": [0, 270.0149245000066], "rt": 0.4856201000075089, "response_key": "4", "late": true}
{"trialID": {"id": 23, "triggers": [215], "duration": 0.01}, "hemifield": "right", "block": 2, "sequence_number": 24, "delay": 7.698419068463107, "tones": [{"toneNumber": 36, "time": 272.2621164000011, "prePupil": [0, 272.24974480000674], "postPupil": [0, 272.31217469999683]}, {"toneNumber": 37, "time": 275.57637799999793, "prePupil": [0, 275.5644655999931], "postPupil": [0, 275.62646090000635]}], "extrakeypresses": [], "coordinates": [6.353779849916643, -0.5806621786517745], "preSpotPupil": [0, 278.77294419999816], "startTime": 278.79779120000603, "postSpotPupil": [0, 279.2223173999955], "rt": 0.36485120000725146, "response_key": "4"}
{"trialID": {"id": 24, "triggers": [216], "duration": 0.01}, "hemifield": "right", "block": 2, "sequence_number": 25, "delay": 7.089347479913381, "tones": [{"toneNumber": 38, "time": 283.2826467999985, "prePupil": [0, 283.26989830000093], "postPupil": [0, 283.3327322999976]}, {"toneNumber": 39, "time": 286.55984279999393, "prePupil": [0, 286.5470215999958], "postPupil": [0, 286.6099271999992]}], "extrakeypresses": [], "coordinates": [10.813042298112075, -2.870631712129093], "preSpotPupil": [0, 287.37129009999626], "startTime": 287.40061690000584, "postSpotPupil": [0, 287.9292577000015], "rt": 0.5062601999961771, "response_key": "4", "late": true}
{"trialID": {"id": 25, "triggers": [217], "duration": 0.01}, "hemifield": "right", "block": 2, "sequence_number": 26, "delay": 4.752228782145524, "tones": [], "extrakeypresses": [], "coordinates": [12.584179647744797, -2.930680750334689], "preSpotPupil": [0, 293.71846289999667], "startTime": 293.75367600000754, "postSpotPupil": [0, 294.3454134000058], "rt": 0.5471541000006255, "response_key": "4", "late": true}
{"trialID": {"id": 26, "triggers": [218], "duration": 0.01}, "hemifield": "right", "block": 2, "sequence_number": 27, "delay": 6.488667803898636, "tones": [{"toneNumber": 40, "time": 296.83860869999626, "prePupil": [0, 296.8264969000011], "postPupil": [0, 296.88868810000713]}, {"toneNumber": 41, "time": 300.2906592999934, "prePupil": [0, 300.278032000002], "postPupil": [0, 300.34076160000404]}], "extrakeypresses": [], "coordinates": [4.508654499581686, -0.9771931901639981], "preSpotPupil": [0, 301.87175999999454], "startTime": 301.89773409999907, "postSpotPupil": [0, 302.26111809999566], "rt": 0.33592789999966044, "response_key": "4"}
{"trialID": {"id": 27, "triggers": [219], "duration": 0.01}, "hemifield": "right", "block": 2, "sequence_number": 28, "delay": 5.931999043868511, "tones": [{"toneNumber": 42, "time": 304.7308170000033, "prePupil": [0, 304.7183275999996], "postPupil": [0, 304.7809123000043]}, {"toneNumber": 43, "time": 308.6004583000031, "prePupil": [0, 308.58833280000545], "postPupil": [0, 308.6505746000039]}], "extrakeypresses": [], "coordinates": [6.471252453179562, 4.274117327101205], "preSpotPupil": [0, 309.25154450000264], "startTime": 309.2728738000005, "postSpotPupil": [0, 309.7189428999991], "rt": 0.40776220000407193, "response_key": "4"}
{"trialID": {"id": 28, "triggers": [220], "duration": 0.01}, "hemifield": "right", "block": 2, "sequence_number": 29, "delay": 3.7617835015019256, "tones": [{"toneNumber": 44, "time": 311.9605496000004, "prePupil": [0, 311.94867139999405], "postPupil": [0, 312.01061130000744]}], "extrakeypresses": [], "coordinates": [5.055128011379055, 4.612210039922974], "preSpotPupil": [0, 314.54106899999897], "startTime": 314.56381910000346, "postSpotPupil": [0, 314.96807820000686], "rt": 0.3488214999961201, "response_key": "4"}
{"trialID": {"id": 29, "triggers": [221], "duration": 0.01}, "hemifield": "right", "block": 2, "sequence_number": 30, "delay": 3.4684016531301376, "tones": [], "extrakeypresses": [], "coordinates": [6.93205077455624, 7.731696924480003], "preSpotPupil": [0, 319.4979344000021], "startTime": 319.52052900000126, "postSpotPupil": [0, 320.07179879999603], "rt": 0.49313400000391994, "response_key": "4", "late": true}
{"trialID": {"id": 30, "triggers": [222], "duration": 0.01}, "hemifield": "right", "block": 2, "sequence_number": 31, "delay": 2.0687076200576833, "tones": [], "extrakeypresses": [], "coordinates": [8.920799877089799, 4.62875154230383], "preSpotPupil": [0, 323.1999227000051], "startTime": 323.2307890999946, "postSpotPupil": [0, 323.6963798999932], "rt": 0.4079809999966528, "response_key": "4"}
{"trialID": {"id": 31, "triggers": [223], "duration": 0.01}, "hemifield": "right", "block": 2, "sequence_number": 32, "delay": 8.765456695394452, "tones": [{"toneNumber": 45, "time": 328.02505300000485, "prePupil": [0, 328.0119326999993], "postPupil": [0, 328.0751135000028]}, {"toneNumber": 46, "time": 332.4657758999965, "prePupil": [0, 332.4535959000059], "postPupil": [0, 332.515859799998]}], "extrakeypresses": [], "coordinates": [14.409426517399798, -3.9701702268698], "preSpotPupil": [0, 333.52086400000553], "startTime": 333.5400254999986, "postSpotPupil": [0, 334.53056529999594], "missed": true}
{"trialID": {"id": 32, "triggers": [224], "duration": 0.01}, "hemifield": "right", "block": 2, "sequence_number": 33, "delay": 6.038154969033532, "tones": [{"toneNumber": 47, "time": 337.61731279999367, "prePupil": [0, 337.60493820000556], "postPupil": [0, 337.66739050000615]}], "extrakeypresses": [], "coordinates": [14.187296744331126, -7.339142226171234], "preSpotPupil": [0, 341.088594300003], "startTime": 341.1228085000039, "postSpotPupil": [0, 342.09109489999537], "missed": true}
{"trialID": {"id": 33, "triggers": [225], "duration": 0.01}, "hemifield": "left", "block": 3, "sequence_number": 34, "delay": 3.32889245371081, "tones": [{"toneNumber": 48, "time": 347.63266970000404, "prePupil": [0, 347.6203983000014], "postPupil": [0, 347.68274139999994]}], "extrakeypresses": [], "coordinates": [-12.30179619664524, 3.2613222545805165], "preSpotPupil": [0, 349.0074372999952], "startTime": 349.0378505999979, "postSpotPupil": [0, 349.6516471000068], "rt": 0.564832000003662, "response_key": "4", "late": true}
{"trialID": {"id": 34, "triggers": [226], "duration": 0.01}, "hemifield": "left", "block": 3, "sequence_number": 35, "delay": 6.380773180555041, "tones": [{"toneNumber": 49, "time": 353.77233900000283, "prePupil": [0, 353.760512199995], "postPupil": [0, 353.82242840000254]}], "extrakeypresses": [], "coordinates": [-3.408195385051995, -5.384153641713678], "preSpotPupil": [0, 357.071108300006], "startTime": 357.1001053999935, "postSpotPupil": [0, 357.48416979999456], "rt": 0.3327019999996992, "response_key": "4"}
{"trialID": {"id": 35, "triggers": [227], "duration": 0.01}, "hemifield": "left", "block": 3, "sequence_number": 36, "delay": 4.57895983134301, "tones": [{"toneNumber": 50, "time": 361.7703569000005, "prePupil": [0, 361.758015600004], "postPupil": [0, 361.82047809999494]}], "extrakeypresses": [], "coordinates": [-7.173829580195768, 4.550240926412263], "preSpotPupil": [0, 363.12195889999566], "startTime": 363.1410567999992, "postSpotPupil": [0, 363.629268100005], "rt": 0.4428327000059653, "response_key": "4"}
{"trialID": {"id": 36, "triggers": [228], "duration": 0.01}, "hemifield": "left", "block": 3, "sequence_number": 37, "delay": 6.662779903657457, "tones": [{"toneNumber": 51, "time": 368.2539032000059, "prePupil": [0, 368.2420340999961], "postPupil": [0, 368.30396720000135]}, {"toneNumber": 52, "time": 369.97016769999755, "prePupil": [0, 369.9572709000058], "postPupil": [0, 370.02023460000055]}], "extrakeypresses": [], "coordinates": [-4.43220188097342, 8.192625341564964], "preSpotPupil": [0, 371.3512410999974], "startTime": 371.3686723999999, "postSpotPupil": [0, 372.0033168999944], "rt": 0.595069599992712, "response_key": "4", "late": true}
{"trialID": {"id": 37, "triggers": [229], "duration": 0.01}, "hemifield": "left", "block": 3, "sequence_number": 38, "delay": 5.420437527162285, "tones": [{"toneNumber": 53, "time": 374.49171440000646, "prePupil": [0, 374.47967210000206], "postPupil": [0, 374.54184330000135]}], "extrakeypresses": [], "coordinates": [-6.871479027501206, -1.150662956444168], "preSpotPupil": [0, 378.4614203999954], "startTime": 378.4943224000017, "postSpotPupil": [0, 378.8775151000009], "rt": 0.3374331000086386, "response_key": "4"}
{"trialID": {"id": 38, "triggers": [230], "duration": 0.01}, "hemifield": "left", "block": 3, "sequence_number": 39, "delay": 3.295131410818109, "tones": [{"toneNumber": 54, "time": 381.9608911999967, "prePupil": [0, 381.94791570000234], "postPupil": [0, 382.01095019999775]}], "extrakeypresses": [], "coordinates": [-5.588327311578945, -2.3585120962583037], "preSpotPupil": [0, 383.2294273000007], "startTime": 383.26466430000437, "postSpotPupil": [0, 383.93943359999685], "rt": 0.6194844999990892, "response_key": "4", "late": true}
{"trialID": {"id": 39, "triggers": [231], "duration": 0.01}, "hemifield": "left", "block": 3, "sequence_number": 40, "delay": 4.012604479678909, "tones": [], "extrakeypresses": [], "coordinates": [-4.3642589536385685, 2.898375945890887], "preSpotPupil": [0, 388.9892198000016], "startTime": 389.0121541999979, "postSpotPupil": [0, 389.6471823000029], "rt": 0.5808553000097163, "response_key": "4", "late": true}
{"trialID": {"id": 40, "triggers": [232], "duration": 0.01}, "hemifield": "left", "block": 3, "sequence_number": 41, "delay": 5.792177526477045, "tones": [{"toneNumber": 55, "time": 394.5909010000032, "prePupil": [0, 394.5784704999969], "postPupil": [0, 394.64096340000106]}], "extrakeypresses": [], "coordinates": [-8.902648151407277, 4.201048328371449], "preSpotPupil": [0, 396.480687999996], "startTime": 396.5125537999993, "postSpotPupil": [0, 396.9379800000024], "rt": 0.36707700000260957, "response_key": "4"}
{"trialID": {"id": 41, "triggers": [233], "duration": 0.01}, "hemifield": "left", "block": 3, "sequence_number": 42, "delay": 1.9486348380984095, "tones": [], "extrakeypresses": [], "coordinates": [-16.1581283330849, 7.7216840564457545], "preSpotPupil": [0, 399.9454246999958], "startTime": 399.970144100007, "postSpotPupil": [0, 400.95967050000036], "missed": true}
{"trialID": {"id": 42, "triggers": [234], "duration": 0.01}, "hemifield": "left", "block": 3, "sequence_number": 43, "delay": 5.118318699537224, "tones": [{"toneNumber": 56, "time": 405.9383791, "prePupil": [0, 405.9270664999931], "postPupil": [0, 405.9885035000043]}], "extrakeypresses": [], "coordinates": [-6.048740869169066, -6.366012634567825], "preSpotPupil": [0, 406.59602549999545], "startTime": 406.6134100000054, "postSpotPupil": [0, 407.0407894999953], "rt": 0.3833867000066675, "response_key": "4"}
{"trialID": {"id": 43, "triggers": [235], "duration": 0.01}, "hemifield": "left", "block": 3, "sequence_number": 44, "delay": 6.505103583611894, "tones": [{"toneNumber": 57, "time": 410.4705299000052, "prePupil": [0, 410.4579825999972], "postPupil": [0, 410.52058890000626]}, {"toneNumber": 58, "time": 412.4982381000009, "prePupil": [0, 412.4869771999947], "postPupil": [0, 412.5482927999983]}], "extrakeypresses": [], "coordinates": [-6.881881842306473, 3.875245204271957], "preSpotPupil": [0, 414.60151019999466], "startTime": 414.6346116000059, "postSpotPupil": [0, 415.0606434000074], "rt": 0.3730763999919873, "response_key": "4"}
{"trialID": {"id": 44, "triggers": [236], "duration": 0.01}, "hemifield": "left", "block": 3, "sequence_number": 45, "delay": 7.049784894965012, "tones": [{"toneNumber": 59, "time": 419.0954675999965, "prePupil": [0, 419.0839472999942], "postPupil": [0, 419.14552510000067]}, {"toneNumber": 60, "time": 420.7306604000041, "prePupil": [0, 420.7182510999992], "postPupil": [0, 420.7807246000011]}], "extrakeypresses": [], "coordinates": [-5.462729013322372, -6.985136493320225], "preSpotPupil": [0, 423.16741029999685], "startTime": 423.1968252999941, "postSpotPupil": [0, 423.7052457999962], "rt": 0.4850890999950934, "response_key": "4", "late": true}
{"trialID": {"id": 45, "triggers": [237], "duration": 0.01}, "hemifield": "left", "block": 3, "sequence_number": 46, "delay": 6.93675614888926, "tones": [{"toneNumber": 61, "time": 427.5598428999947, "prePupil": [0, 427.54750369999965], "postPupil": [0, 427.6099069000047]}, {"toneNumber": 62, "time": 429.88199120000354, "prePupil": [0, 429.8697072000068], "postPupil": [0, 429.93206000000646]}], "extrakeypresses": [], "coordinates": [-1.7131285577342794, -6.961030296823276], "preSpotPupil": [0, 431.7007040000026], "startTime": 431.71539899999334, "postSpotPupil": [0, 432.3922777999978], "rt": 0.6313492999906885, "response_key": "4", "late": true}
{"trialID": {"id": 46, "triggers": [238], "duration": 0.01}, "hemifield": "left", "block": 3, "sequence_number": 47, "delay": 9.02372705128857, "tones": [{"toneNumber": 63, "time": 437.626788900001, "prePupil": [0, 437.614633300007], "postPupil": [0, 437.67684899999585]}], "extrakeypresses": [437.8177260999946], "coordinates": [-10.414757275832093, -8.493751416610147], "preSpotPupil": [0, 442.45617419999326], "startTime": 442.4869741000002, "postSpotPupil": [0, 443.07829809999384], "rt": 0.5307247000018833, "response_key": "4", "late": true}
{"trialID": {"id": 47, "triggers": [239], "duration": 0.01}, "hemifield": "left", "block": 3, "sequence_number": 48, "delay": 5.966469976860972, "tones": [{"toneNumber": 64, "time": 447.67009600000165, "prePupil": [0, 447.65786609999486], "postPupil": [0, 447.7201692999952]}], "extrakeypresses": [], "coordinates": [-13.710301271425408, 6.438419011369261], "preSpotPupil": [0, 450.0836835999944], "startTime": 450.1108787999983, "postSpotPupil": [0, 450.84826119999343], "rt": 0.6814529999974184, "response_key": "4", "late": true}
{"trialID": {"id": 48, "triggers": [240], "duration": 0.01}, "hemifield": "left", "block": 3, "sequence_number": 49, "delay": 6.772954238124248, "tones": [{"toneNumber": 65, "time": 454.4252078999998, "prePupil": [0, 454.41384839999955], "postPupil": [0, 454.47529279999435]}, {"toneNumber": 66, "time": 456.3651775000035, "prePupil": [0, 456.3533153000026], "postPupil": [0, 456.4152671000047]}], "extrakeypresses": [], "coordinates": [-15.268868732999277, -8.530866706212212], "preSpotPupil": [0, 458.6586627999932], "startTime": 458.6912069999962, "postSpotPupil": [0, 459.6615718999965], "missed": true}
{"trialID": {"id": 49, "triggers": [241], "duration": 0.01}, "hemifield": "left", "block": 3, "sequence_number": 50, "delay": 9.42233530061877, "tones": [{"toneNumber": 67, "time": 461.9385859000031, "prePupil": [0, 461.92609609999636], "postPupil": [0, 461.9886425000004]}, {"toneNumber": 68, "time": 463.59641509999346, "prePupil": [0, 463.58511339999677], "postPupil": [0, 463.6464801999973]}, {"toneNumber": 69, "time": 466.0839447000035, "prePupil": [0, 466.0720250000013], "postPupil": [0, 466.1340074000036]}], "extrakeypresses": [], "coordinates": [-14.835702391796016, -2.572487978876052], "preSpotPupil": [0, 469.6020429000055], "startTime": 469.62764120000065, "postSpotPupil": [0, 469.65858899999876], "rt": -0.6598955999943428, "response_key": "4"}
{"trialID": {"id": 50, "triggers": [242], "duration": 0.01}, "hemifield": "right", "block": 4, "sequence_number": 51, "delay": 9.250157593547709, "tones": [{"toneNumber": 70, "time": 477.68313829999533, "prePupil": [0, 477.6712780999951], "postPupil": [0, 477.73322540000663]}], "extrakeypresses": [], "coordinates": [13.943131023315589, 3.7122941646632768], "preSpotPupil": [0, 483.163693399998], "startTime": 483.19132060000265, "postSpotPupil": [0, 483.71926870000607], "rt": 0.49142970000684727, "response_key": "4", "late": true}
{"trialID": {"id": 51, "triggers": [243], "duration": 0.01}, "hemifield": "right", "block": 4, "sequence_number": 52, "delay": 4.585038609037673, "tones": [{"toneNumber": 71, "time": 488.7299417000031, "prePupil": [0, 488.7175483000028], "postPupil": [0, 488.78000290000637]}], "extrakeypresses": [], "coordinates": [13.384919876993777, -2.094544627329685], "preSpotPupil": [0, 489.3605443999986], "startTime": 489.3757156000065, "postSpotPupil": [0, 490.05231240000285], "rt": 0.6314660000061849, "response_key": "4", "late": true}
{"trialID": {"id": 52, "triggers": [244], "duration": 0.01}, "hemifield": "right", "block": 4, "sequence_number": 53, "delay": 2.4272881861329028, "tones": [{"toneNumber": 72, "time": 492.3317941999994, "prePupil": [0, 492.3198640000046], "postPupil": [0, 492.38185859999794]}], "extrakeypresses": [], "coordinates": [2.0625880253157245, 4.7482393491651145], "preSpotPupil": [0, 493.51700180000626], "startTime": 493.54295800000546, "postSpotPupil": [0, 493.94760329999554], "rt": 0.3628237000084482, "response_key": "4"}
{"trialID": {"id": 53, "triggers": [245], "duration": 0.01}, "hemifield": "right", "block": 4, "sequence_number": 54, "delay": 3.289344850163345, "tones": [], "extrakeypresses": [], "coordinates": [2.24427185446066, 3.4397357646223305], "preSpotPupil": [0, 498.29591909999726], "startTime": 498.31280179999885, "postSpotPupil": [0, 498.8011329000001], "rt": 0.44218139999429695, "response_key": "4"}
{"trialID": {"id": 54, "triggers": [246], "duration": 0.01}, "hemifield": "right", "block": 4, "sequence_number": 55, "delay": 5.825768615817185, "tones": [{"toneNumber": 73, "time": 501.5576199000061, "prePupil": [0, 501.54598209999676], "postPupil": [0, 501.6076968999987]}], "extrakeypresses": [], "coordinates": [12.765259758980378, -7.875726854610881], "preSpotPupil": [0, 505.6860100000049], "startTime": 505.7083788000018, "postSpotPupil": [0, 506.69827480000095], "missed": true}
{"trialID": {"id": 55, "triggers": [247], "duration": 0.01}, "hemifield": "right", "block": 4, "sequence_number": 56, "delay": 2.9808127596004788, "tones": [{"toneNumber": 74, "time": 509.166000600002, "prePupil": [0, 509.15427040000213], "postPupil": [0, 509.21606659999816]}], "extrakeypresses": [], "coordinates": [8.981911542081622, -4.467646546529708], "preSpotPupil": [0, 510.1991249999992], "startTime": 510.2280017000012, "postSpotPupil": [0, 510.77878910000436], "rt": 0.5130764999921666, "response_key": "4", "late": true}
{"trialID": {"id": 56, "triggers": [248], "duration": 0.01}, "hemifield": "right", "block": 4, "sequence_number": 57, "delay": 5.524325512985417, "tones": [{"toneNumber": 75, "time": 513.9383465999999, "prePupil": [0, 513.9265549999982], "postPupil": [0, 513.9884045999934]}, {"toneNumber": 76, "time": 515.998262299996, "prePupil": [0, 515.9865082000033], "postPupil": [0, 516.0483697000018]}], "extrakeypresses": [], "coordinates": [15.905199613551744, 7.418513782307537], "preSpotPupil": [0, 517.3455939999985], "startTime": 517.3751621999982, "postSpotPupil": [0, 518.3630919999996], "missed": true}
{"trialID": {"id": 57, "triggers": [249], "duration": 0.01}, "hemifield": "right", "block": 4, "sequence_number": 58, "delay": 8.828763090900317, "tones": [{"toneNumber": 77, "time": 521.7842729999975, "prePupil": [0, 521.7724295999942], "postPupil": [0, 521.834348999997]}, {"toneNumber": 78, "time": 526.3458114999958, "prePupil": [0, 526.3338895000052], "postPupil": [0, 526.3959030999977]}], "extrakeypresses": [], "coordinates": [2.3273018150937306, 5.091981502873921], "preSpotPupil": [0, 527.7101981000014], "startTime": 527.7248664999934, "postSpotPupil": [0, 528.2767909999966], "rt": 0.49992780000320636, "response_key": "4", "late": true}
{"trialID": {"id": 58, "triggers": [250], "duration": 0.01}, "hemifield": "right", "block": 4, "sequence_number": 59, "delay": 7.781456156545275, "tones": [{"toneNumber": 79, "time": 531.8897367000027, "prePupil": [0, 531.8774484000023], "postPupil": [0, 531.9398351999989]}, {"toneNumber": 80, "time": 533.817332000006, "prePupil": [0, 533.8052214000054], "postPupil": [0, 533.8674404000049]}], "extrakeypresses": [], "coordinates": [4.465688904329412, 2.787791978753063], "preSpotPupil": [0, 537.1145126000047], "startTime": 537.1419949999981, "postSpotPupil": [0, 537.5671703999978], "rt": 0.3948859999945853, "response_key": "4"}
{"trialID": {"id": 59, "triggers": [251], "duration": 0.01}, "hemifield": "right", "block": 4, "sequence_number": 60, "delay": 1.5960562355720818, "tones": [], "extrakeypresses": [], "coordinates": [7.058189445739093, 7.203179975867087], "preSpotPupil": [0, 540.2213297999988], "startTime": 540.2467082000076, "postSpotPupil": [0, 541.2355212999973], "missed": true}
{"trialID": {"id": 60, "triggers": [252], "duration": 0.01}, "hemifield": "right", "block": 4, "sequence_number": 61, "delay": 1.6737559114119236, "tones": [], "extrakeypresses": [], "coordinates": [1.947220469788197, -0.42488722162426207], "preSpotPupil": [0, 543.427786500004], "startTime": 543.452191599994, "postSpotPupil": [0, 543.8164569999935], "rt": 0.3322263000009116, "response_key": "4"}
{"trialID": {"id": 61, "triggers": [253], "duration": 0.01}, "hemifield": "right", "block": 4, "sequence_number": 62, "delay": 2.7214877826810238, "tones": [], "extrakeypresses": [], "coordinates": [5.315049092897637, -4.042306216080402], "preSpotPupil": [0, 547.6010695000004], "startTime": 547.6193693999958, "postSpotPupil": [0, 548.0867689000006], "rt": 0.4426631000096677, "response_key": "4"}
{"trialID": {"id": 62, "triggers": [254], "duration": 0.01}, "hemifield": "right", "block": 4, "sequence_number": 63, "delay": 7.595830483139231, "tones": [{"toneNumber": 81, "time": 551.1308997000015, "prePupil": [0, 551.1187374000001], "postPupil": [0, 551.1810747999989]}, {"toneNumber": 82, "time": 553.4479802999995, "prePupil": [0, 553.4354025000066], "postPupil": [0, 553.4981883]}, {"toneNumber": 83, "time": 555.8364951999974, "prePupil": [0, 555.8253257000033], "postPupil": [0, 555.8865737000015]}], "extrakeypresses": [], "coordinates": [9.028976106283213, -3.327391913077979], "preSpotPupil": [0, 556.7423796000076], "startTime": 556.7649493000063, "postSpotPupil": [0, 557.1694388000033], "rt": 0.3591210000013234, "response_key": "4"}
{"trialID": {"id": 63, "triggers": [129, 192], "duration": 0.02}, "hemifield": "right", "block": 4, "sequence_number": 64, "delay": 8.072603978311728, "tones": [{"toneNumber": 84, "time": 559.8068944999977, "prePupil": [0, 559.7949646000052], "postPupil": [0, 559.8569518000004]}, {"toneNumber": 85, "time": 562.2664755000005, "prePupil": [0, 562.2545028000022], "postPupil": [0, 562.3165480000025]}, {"toneNumber": 86, "time": 565.2146498000075, "prePupil": [0, 565.2024022999976], "postPupil": [0, 565.2647260999947]}], "extrakeypresses": [], "coordinates": [8.682566205520788, -0.3336770215295246], "preSpotPupil": [0, 566.3129113000032], "startTime": 566.3469872999995, "postSpotPupil": [0, 566.8349224999984], "rt": 0.4398753999994369, "response_key": "4"}
{"trialID": {"id": 64, "triggers": [129, 193], "duration": 0.02}, "hemifield": "right", "block": 4, "sequence_number": 65, "delay": 3.914688875889749, "tones": [], "extrakeypresses": [], "coordinates": [14.137472023350275, 1.82874007083071], "preSpotPupil": [0, 571.8231656999997], "startTime": 571.8462220000074, "postSpotPupil": [0, 572.8362983999978], "missed": true}
{"trialID": {"id": 65, "triggers": [129, 194], "duration": 0.02}, "hemifield": "right", "block": 4, "sequence_number": 66, "delay": 9.331679498334983, "tones": [{"toneNumber": 87, "time": 574.6652676999947, "prePupil": [0, 574.6524661000003], "postPupil": [0, 574.7153454999934]}, {"toneNumber": 88, "time": 578.0464155999944, "prePupil": [0, 578.0349695000041], "postPupil": [0, 578.0964808999997]}, {"toneNumber": 89, "time": 580.0143941999995, "prePupil": [0, 580.0015536999999], "postPupil": [0, 580.0644542999944]}], "extrakeypresses": [575.7582926000032], "coordinates": [5.364130523597336, 7.350967390871267], "preSpotPupil": [0, 582.6985446000035], "startTime": 582.7202602000034, "postSpotPupil": [0, 583.1456652000052], "rt": 0.37157949998800177, "response_key": "4"}
{"trialID": {"id": 66, "triggers": [129, 195], "duration": 0.02}, "hemifield": "right", "block": 4, "sequence_number": 67, "delay": 7.120756743805089, "tones": [{"toneNumber": 90, "time": 585.8114314999984, "prePupil": [0, 585.7995383999951], "postPupil": [0, 585.8614887000003]}, {"toneNumber": 91, "time": 589.5905191000056, "prePupil": [0, 589.5773604999995], "postPupil": [0, 589.6405895000062]}], "extrakeypresses": [], "coordinates": [3.6417332332357195, 4.790830339337543], "preSpotPupil": [0, 591.3378052000044], "startTime": 591.3650869999983, "postSpotPupil": [0, 591.7696563000063], "rt": 0.35393550001026597, "response_key": "4"}
{"trialID": {"id": 67, "triggers": [129, 196], "duration": 0.02}, "hemifield": "right", "block": 4, "sequence_number": 68, "delay": 8.470941370084995, "tones": [{"toneNumber": 92, "time": 595.9448821999977, "prePupil": [0, 595.933143000002], "postPupil": [0, 595.994944200007]}, {"toneNumber": 93, "time": 599.4176290000032, "prePupil": [0, 599.4057216999936], "postPupil": [0, 599.4677071000042]}], "extrakeypresses": [], "coordinates": [6.511534428567126, 1.7302076212002522], "preSpotPupil": [0, 601.3124937999964], "startTime": 601.343643900007, "postSpotPupil": [0, 601.7683544000029], "rt": 0.3944273999950383, "response_key": "4"}
{"trialID": {"id": 68, "triggers": [129, 197], "duration": 0.02}, "hemifield": "left", "block": 5, "sequence_number": 69, "delay": 7.971129380166364, "tones": [{"toneNumber": 94, "time": 607.5766085000068, "prePupil": [0, 607.5650484000071], "postPupil": [0, 607.6266851999972]}, {"toneNumber": 95, "time": 612.1663224999938, "prePupil": [0, 612.1549009000009], "postPupil": [0, 612.2163853999955]}], "extrakeypresses": [], "coordinates": [-3.114425491754858, -8.18890920460088], "preSpotPupil": [0, 613.8596952999942], "startTime": 613.8830829999933, "postSpotPupil": [0, 614.6005881000019], "rt": 0.6786997000017436, "response_key": "4", "late": true}
{"trialID": {"id": 69, "triggers": [129, 198], "duration": 0.02}, "hemifield": "left", "block": 5, "sequence_number": 70, "delay": 7.584668790675829, "tones": [{"toneNumber": 96, "time": 619.887476200005, "prePupil": [0, 619.8762061000016], "postPupil": [0, 619.9375629999995]}, {"toneNumber": 97, "time": 622.3444058000023, "prePupil": [0, 622.332597200002], "postPupil": [0, 622.3944779000012]}], "extrakeypresses": [], "coordinates": [-15.443338154270274, 2.906114100523416], "preSpotPupil": [0, 623.2340028000035], "startTime": 623.256264399999, "postSpotPupil": [0, 624.2465507000015], "missed": true}
{"trialID": {"id": 70, "triggers": [129, 199], "duration": 0.02}, "hemifield": "left", "block": 5, "sequence_number": 71, "delay": 5.04253923362197, "tones": [{"toneNumber": 98, "time": 628.9215034999943, "prePupil": [0, 628.9083643000049], "postPupil": [0, 628.9716122999962]}], "extrakeypresses": [], "coordinates": [-8.64525076116145, -2.541819362726236], "preSpotPupil": [0, 629.8177578000032], "startTime": 629.8383458000026, "postSpotPupil": [0, 630.3070420000004], "rt": 0.4227074999944307, "response_key": "4"}
{"trialID": {"id": 71, "triggers": [129, 200], "duration": 0.02}, "hemifield": "left", "block": 5, "sequence_number": 72, "delay": 3.7633718732585715, "tones": [{"toneNumber": 99, "time": 633.6718190999964, "prePupil": [0, 633.6596761999972], "postPupil": [0, 633.7218827000033]}], "extrakeypresses": [], "coordinates": [-13.70278075212127, -7.869174102215594], "preSpotPupil": [0, 635.1409928000066], "startTime": 635.1734051999956, "postSpotPupil": [0, 636.141306599995], "missed": true}
{"trialID": {"id": 72, "triggers": [129, 201], "duration": 0.02}, "hemifield": "left", "block": 5, "sequence_number": 73, "delay": 7.68129526339073, "tones": [{"toneNumber": 100, "time": 640.6649185999995, "prePupil": [0, 640.6520242999977], "postPupil": [0, 640.714988599997]}], "extrakeypresses": [], "coordinates": [-2.962738735044459, 6.150652637067626], "preSpotPupil": [0, 644.3503906999977], "startTime": 644.3795880999969, "postSpotPupil": [0, 644.763446900004], "rt": 0.36129040000378154, "response_key": "4"}
{"trialID": {"id": 73, "triggers": [129, 202], "duration": 0.02}, "hemifield": "left", "block": 5, "sequence_number": 74, "delay": 5.486864064040614, "tones": [{"toneNumber": 101, "time": 648.6961102000059, "prePupil": [0, 648.6840690999961], "postPupil": [0, 648.7461713999946]}], "extrakeypresses": [], "coordinates": [-2.3214846416154824, 4.5273285425539935], "preSpotPupil": [0, 651.3207982000022], "startTime": 651.3362134000054, "postSpotPupil": [0, 651.804487500005], "rt": 0.41218329999537673, "response_key": "4"}
{"trialID": {"id": 74, "triggers": [129, 203], "duration": 0.02}, "hemifield": "left", "block": 5, "sequence_number": 75, "delay": 1.7691595539903142, "tones": [{"toneNumber": 102, "time": 653.921849499995, "prePupil": [0, 653.9097522999946], "postPupil": [0, 653.9719139999943]}], "extrakeypresses": [], "coordinates": [-9.657127765845415, -4.35154039906185], "preSpotPupil": [0, 654.6450923999946], "startTime": 654.6720835000015, "postSpotPupil": [0, 655.3247319999937], "rt": 0.5958066000021063, "response_key": "4", "late": true}
{"trialID": {"id": 75, "triggers": [129, 204], "duration": 0.02}, "hemifield": "left", "block": 5, "sequence_number": 76, "delay": 5.958766566357584, "tones": [{"toneNumber": 103, "time": 657.4564078999974, "prePupil": [0, 657.4450887999992], "postPupil": [0, 657.5064824000001]}, {"toneNumber": 104, "time": 661.1855464999971, "prePupil": [0, 661.1741457000026], "postPupil": [0, 661.2356011999946]}], "extrakeypresses": [], "coordinates": [-6.616680252850374, -1.476433514194527], "preSpotPupil": [0, 662.3361551999988], "startTime": 662.3572967000073, "postSpotPupil": [0, 663.0110875999962], "rt": 0.6315693999931682, "response_key": "4", "late": true}
{"trialID": {"id": 76, "triggers": [129, 205], "duration": 0.02}, "hemifield": "left", "block": 5, "sequence_number": 77, "delay": 8.769715543247768, "tones": [{"toneNumber": 105, "time": 666.665407499997, "prePupil": [0, 666.6530523999973], "postPupil": [0, 666.7154719999962]}, {"toneNumber": 106, "time": 668.9930765000026, "prePupil": [0, 668.9812263000058], "postPupil": [0, 669.0431616999995]}, {"toneNumber": 107, "time": 671.0085399999953, "prePupil": [0, 670.996472800005], "postPupil": [0, 671.058604100006]}], "extrakeypresses": [672.3352477000008], "coordinates": [-12.54330880484364, 8.634950251162815], "preSpotPupil": [0, 672.9902791000059], "startTime": 673.022593200003, "postSpotPupil": [0, 673.9913536999957], "missed": true}
{"trialID": {"id": 77, "triggers": [129, 206], "duration": 0.02}, "hemifield": "left", "block": 5, "sequence_number": 78, "delay": 8.431305528090046, "tones": [{"toneNumber": 108, "time": 678.1285575000074, "prePupil": [0, 678.1166854000039], "postPupil": [0, 678.1786761999974]}, {"toneNumber": 109, "time": 681.1679557000025, "prePupil": [0, 681.1568928000052], "postPupil": [0, 681.2180343000073]}], "extrakeypresses": [], "coordinates": [-3.441588593043056, 4.808302789950352], "preSpotPupil": [0, 682.953008299999], "startTime": 682.9781745000073, "postSpotPupil": [0, 683.4254706000065], "rt": 0.4139364000002388, "response_key": "4"}
{"trialID": {"id": 78, "triggers": [129, 207], "duration": 0.02}, "hemifield": "left", "block": 5, "sequence_number": 79, "delay": 6.017959833949298, "tones": [{"toneNumber": 110, "time": 687.8434915999969, "prePupil": [0, 687.8307142999984], "postPupil": [0, 687.8935651000065]}], "extrakeypresses": [], "coordinates": [-12.357961067021334, -7.64635454283313], "preSpotPupil": [0, 690.5164451000019], "startTime": 690.5407099000004, "postSpotPupil": [0, 691.1540737000032], "rt": 0.5664321999938693, "response_key": "4", "late": true}
{"trialID": {"id": 79, "triggers": [129, 208], "duration": 0.02}, "hemifield": "left", "block": 5, "sequence_number": 80, "delay": 3.382654035935758, "tones": [{"toneNumber": 111, "time": 693.8314792000019, "prePupil": [0, 693.8196568999992], "postPupil": [0, 693.8815533000015]}], "extrakeypresses": [], "coordinates": [-15.359752210162439, 4.264582876054051], "preSpotPupil": [0, 695.5877118000062], "startTime": 695.6260119000071, "postSpotPupil": [0, 696.5927381000074], "missed": true}
{"trialID": {"id": 80, "triggers": [129, 209], "duration": 0.02}, "hemifield": "left", "block": 5, "sequence_number": 81, "delay": 7.971707086408754, "tones": [{"toneNumber": 112, "time": 700.5477991999942, "prePupil": [0, 700.5359459000028], "postPupil": [0, 700.5978746000037]}, {"toneNumber": 113, "time": 703.8106529999932, "prePupil": [0, 703.7981328000023], "postPupil": [0, 703.860755200003]}], "extrakeypresses": [], "coordinates": [-9.611338357844275, -2.567437415673142], "preSpotPupil": [0, 705.0945532000042], "startTime": 705.1225689999992, "postSpotPupil": [0, 705.6524489000003], "rt": 0.4716480000060983, "response_key": "4", "late": true}
{"trialID": {"id": 81, "triggers": [129, 210], "duration": 0.02}, "hemifield": "left", "block": 5, "sequence_number": 82, "delay": 3.1048345079686444, "tones": [], "extrakeypresses": [], "coordinates": [-14.953754459721116, 6.966506020843921], "preSpotPupil": [0, 709.8315691000025], "startTime": 709.8509349999949, "postSpotPupil": [0, 710.8411897000042], "missed": true}
{"trialID": {"id": 82, "triggers": [129, 211], "duration": 0.02}, "hemifield": "left", "block": 5, "sequence_number": 83, "delay": 7.949457160448478, "tones": [{"toneNumber": 114, "time": 713.7263206000061, "prePupil": [0, 713.7143504999985], "postPupil": [0, 713.7763952999958]}, {"toneNumber": 115, "time": 716.640201000002, "prePupil": [0, 716.628063199998], "postPupil": [0, 716.6902910000063]}], "extrakeypresses": [], "coordinates": [-9.5534277245835, 4.5198661322336005], "preSpotPupil": [0, 719.321406300005], "startTime": 719.3505676000059, "postSpotPupil": [0, 719.838251299996], "rt": 0.44546360000094865, "response_key": "4"}
{"trialID": {"id": 83, "triggers": [129, 212], "duration": 0.02}, "hemifield": "left", "block": 5, "sequence_number": 84, "delay": 8.9107377222196, "tones": [{"toneNumber": 116, "time": 724.0643662999937, "prePupil": [0, 724.0514827000006], "postPupil": [0, 724.1144615999947]}, {"toneNumber": 117, "time": 726.8318298999948, "prePupil": [0, 726.8196634000051], "postPupil": [0, 726.8818880000035]}], "extrakeypresses": [], "coordinates": [-14.245341338009426, 3.4405891644662674], "preSpotPupil": [0, 729.8205537000031], "startTime": 729.8496710000036, "postSpotPupil": [0, 730.8388284999965], "missed": true}
{"trialID": {"id": 84, "triggers": [129, 213], "duration": 0.02}, "hemifield": "right", "block": 6, "sequence_number": 85, "delay": 4.772905862573667, "tones": [{"toneNumber": 118, "time": 735.5045194999984, "prePupil": [0, 735.4926242999936], "postPupil": [0, 735.5545833000069]}, {"toneNumber": 119, "time": 738.131498799994, "prePupil": [0, 738.1197807999997], "postPupil": [0, 738.1815957000072]}], "extrakeypresses": [733.9490824999957], "coordinates": [5.987337926125931, -6.100990766675176], "preSpotPupil": [0, 739.2094862999948], "startTime": 739.2436314999941, "postSpotPupil": [0, 739.7941320999962], "rt": 0.4956235999998171, "response_key": "4", "late": true}
{"trialID": {"id": 85, "triggers": [129, 214], "duration": 0.02}, "hemifield": "right", "block": 6, "sequence_number": 86, "delay": 9.357371965105344, "tones": [{"toneNumber": 120, "time": 743.3303654000047, "prePupil": [0, 743.3185555999953], "postPupil": [0, 743.3804266999941]}, {"toneNumber": 121, "time": 747.4368894999934, "prePupil": [0, 747.4248928000015], "postPupil": [0, 747.4869761000009]}, {"toneNumber": 122, "time": 749.3552598999959, "prePupil": [0, 749.3429895000008], "postPupil": [0, 749.4054168000002]}], "extrakeypresses": [], "coordinates": [11.428256843518357, -2.052711441986858], "preSpotPupil": [0, 750.2224468000059], "startTime": 750.2409203999996, "postSpotPupil": [0, 750.9178033000062], "rt": 0.6303068999986863, "response_key": "4", "late": true}
{"trialID": {"id": 86, "triggers": [129, 215], "duration": 0.02}, "hemifield": "right", "block": 6, "sequence_number": 87, "delay": 8.111990829672827, "tones": [{"toneNumber": 123, "time": 756.0926263000001, "prePupil": [0, 756.0808034000074], "postPupil": [0, 756.1427003999997]}, {"toneNumber": 124, "time": 759.4655214999948, "prePupil": [0, 759.4537270000001], "postPupil": [0, 759.5155917999946]}], "extrakeypresses": [], "coordinates": [9.092144507570628, -0.7071241705407063], "preSpotPupil": [0, 760.0844694999978], "startTime": 760.1171711000061, "postSpotPupil": [0, 760.5834044999938], "rt": 0.42102550000709016, "response_key": "4"}
{"trialID": {"id": 87, "triggers": [129, 216], "duration": 0.02}, "hemifield": "right", "block": 6, "sequence_number": 88, "delay": 5.027381333739764, "tones": [{"toneNumber": 125, "time": 764.7434033000027, "prePupil": [0, 764.7315964000009], "postPupil": [0, 764.7934810000006]}], "extrakeypresses": [], "coordinates": [2.9393470668264023, -3.4558446413744095], "preSpotPupil": [0, 766.6857530999987], "startTime": 766.7212465000048, "postSpotPupil": [0, 767.1662267000065], "rt": 0.3918962999887299, "response_key": "4"}
{"trialID": {"id": 88, "triggers": [129, 217], "duration": 0.02}, "hemifield": "right", "block": 6, "sequence_number": 89, "delay": 6.675202747896355, "tones": [{"toneNumber": 126, "time": 770.9469661000039, "prePupil": [0, 770.9341779999959], "postPupil": [0, 770.9970255999942]}], "extrakeypresses": [], "coordinates": [13.954707929166569, 0.25790526164006167], "preSpotPupil": [0, 774.9164011999965], "startTime": 774.9501087999961, "postSpotPupil": [0, 775.5611543999985], "rt": 0.5524454999977024, "response_key": "4", "late": true}
{"trialID": {"id": 89, "triggers": [129, 218], "duration": 0.02}, "hemifield": "right", "block": 6, "sequence_number": 90, "delay": 8.60250352658931, "tones": [{"toneNumber": 127, "time": 781.1227484999981, "prePupil": [0, 781.1109434999962], "postPupil": [0, 781.1728082000045]}, {"toneNumber": 128, "time": 783.5998435000074, "prePupil": [0, 783.5870235000039], "postPupil": [0, 783.6499170000025]}], "extrakeypresses": [], "coordinates": [5.902569309343321, 6.76079357713796], "preSpotPupil": [0, 785.2118493000016], "startTime": 785.2402468000073, "postSpotPupil": [0, 785.7264667999989], "rt": 0.4456301999889547, "response_key": "4"}
{"trialID": {"id": 90, "triggers": [129, 219], "duration": 0.02}, "hemifield": "right", "block": 6, "sequence_number": 91, "delay": 5.792068289734792, "tones": [{"toneNumber": 129, "time": 789.6967374999949, "prePupil": [0, 789.6852111000044], "postPupil": [0, 789.7468040999956]}, {"toneNumber": 130, "time": 792.0424009999988, "prePupil": [0, 792.0305363999942], "postPupil": [0, 792.0924684000056]}], "extrakeypresses": [], "coordinates": [4.614796026153603, 5.227437176108758], "preSpotPupil": [0, 792.5924946000014], "startTime": 792.6110850999976, "postSpotPupil": [0, 793.0798274999979], "rt": 0.4109508999972604, "response_key": "4"}
{"trialID": {"id": 91, "triggers": [129, 220], "duration": 0.02}, "hemifield": "right", "block": 6, "sequence_number": 92, "delay": 4.571729341103676, "tones": [{"toneNumber": 131, "time": 797.4611048999941, "prePupil": [0, 797.4486438000022], "postPupil": [0, 797.5111781000014]}], "extrakeypresses": [], "coordinates": [2.9611754733793134, 7.795856962732243], "preSpotPupil": [0, 798.7202230999974], "startTime": 798.7370631999947, "postSpotPupil": [0, 799.7264824000013], "missed": true}
{"trialID": {"id": 92, "triggers": [129, 221], "duration": 0.02}, "hemifield": "right", "block": 6, "sequence_number": 93, "delay": 4.250966012169627, "tones": [{"toneNumber": 132, "time": 801.8166824999935, "prePupil": [0, 801.8052470999974], "postPupil": [0, 801.8667521000025]}], "extrakeypresses": [], "coordinates": [15.430845212423518, 3.1524963364904064], "preSpotPupil": [0, 804.5083521000051], "startTime": 804.5260510999942, "postSpotPupil": [0, 805.5176223000017], "missed": true}
{"trialID": {"id": 93, "triggers": [129, 222], "duration": 0.02}, "hemifield": "right", "block": 6, "sequence_number": 94, "delay": 9.307742230059471, "tones": [{"toneNumber": 133, "time": 809.7827030000044, "prePupil": [0, 809.7705647999974], "postPupil": [0, 809.8327802999993]}, {"toneNumber": 134, "time": 811.4693774000043, "prePupil": [0, 811.4568339999969], "postPupil": [0, 811.5195010000025]}], "extrakeypresses": [], "coordinates": [5.951434546569591, -4.871531627046057], "preSpotPupil": [0, 815.3554139000044], "startTime": 815.3800890999992, "postSpotPupil": [0, 816.0564614000032], "rt": 0.616954800003441, "response_key": "4", "late": true}
{"trialID": {"id": 94, "triggers": [129, 223], "duration": 0.02}, "hemifield": "right", "block": 6, "sequence_number": 95, "delay": 1.939587398161895, "tones": [], "extrakeypresses": [], "coordinates": [3.008029947250099, -0.9022790496960882], "preSpotPupil": [0, 819.0440815000038], "startTime": 819.0682192999957, "postSpotPupil": [0, 819.4516876999987], "rt": 0.3317622000031406, "response_key": "4"}
{"trialID": {"id": 95, "triggers": [129, 224], "duration": 0.02}, "hemifield": "right", "block": 6, "sequence_number": 96, "delay": 4.423536090580732, "tones": [], "extrakeypresses": [], "coordinates": [15.953333167082663, -2.0181947879575945], "preSpotPupil": [0, 824.9457986000052], "startTime": 824.9619836000056, "postSpotPupil": [0, 825.9533417000057], "missed": true}
{"trialID": {"id": 96, "triggers": [129, 225], "duration": 0.02}, "hemifield": "right", "block": 6, "sequence_number": 97, "delay": 7.229073970125571, "tones": [{"toneNumber": 135, "time": 829.9424493999977, "prePupil": [0, 829.929944500007], "postPupil": [0, 829.9925148000038]}, {"toneNumber": 136, "time": 831.8136610999936, "prePupil": [0, 831.8021937000012], "postPupil": [0, 831.8637230000022]}], "extrakeypresses": [], "coordinates": [2.97891813491043, 2.1074660785018544], "preSpotPupil": [0, 833.7147631999978], "startTime": 833.7312128000049, "postSpotPupil": [0, 834.1999316000001], "rt": 0.4088724000030197, "response_key": "4"}
{"trialID": {"id": 97, "triggers": [129, 226], "duration": 0.02}, "hemifield": "right", "block": 6, "sequence_number": 98, "delay": 7.778737363942351, "tones": [{"toneNumber": 137, "time": 837.5348583000014, "prePupil": [0, 837.5227282999986], "postPupil": [0, 837.584935299994]}, {"toneNumber": 138, "time": 840.6634760000015, "prePupil": [0, 840.6508083999943], "postPupil": [0, 840.7135802999983]}], "extrakeypresses": [], "coordinates": [15.879675698003863, -5.97256982234514], "preSpotPupil": [0, 843.0527763999999], "startTime": 843.0863867000007, "postSpotPupil": [0, 844.0548984000052], "missed": true}
{"trialID": {"id": 98, "triggers": [129, 227], "duration": 0.02}, "hemifield": "right", "block": 6, "sequence_number": 99, "delay": 5.427072002429547, "tones": [{"toneNumber": 139, "time": 845.7576847000018, "prePupil": [0, 845.7457809000043], "postPupil": [0, 845.8078602000023]}], "extrakeypresses": [], "coordinates": [12.326431288387893, -2.2093585434255543], "preSpotPupil": [0, 850.011573900003], "startTime": 850.0422175999993, "postSpotPupil": [0, 850.9063352999947], "rt": 0.803751800005557, "response_key": "4", "late": true}
{"trialID": {"id": 99, "triggers": [129, 228], "duration": 0.02}, "hemifield": "right", "block": 6, "sequence_number": 100, "delay": 3.9013161870428386, "tones": [{"toneNumber": 140, "time": 854.2506033999962, "prePupil": [0, 854.2382300000027], "postPupil": [0, 854.300694599995]}], "extrakeypresses": [], "coordinates": [10.585032440858628, 7.659396646615329], "preSpotPupil": [0, 855.8576285000017], "startTime": 855.8756144000072, "postSpotPupil": [0, 856.6141835000017], "rt": 0.6823614000022644, "response_key": "4", "late": true}
