{"trialID": {"id": 0, "triggers": [192], "duration": 0.01}, "hemifield": "right", "block": 1, "sequence_number": 1, "delay": 3.174271091882905, "tones": [], "extrakeypresses": [95.24778020000667], "coordinates": [12.044856032017073, -1.2372530299375866], "preSpotPupil": [0, 98.88725100000738], "startTime": 98.91190499998629, "postSpotPupil": [0, 99.4009424999822], "rt": 0.44891189999179915, "response_key": "2"}
{"trialID": {"id": 1, "triggers": [193], "duration": 0.01}, "hemifield": "right", "block": 1, "sequence_number": 2, "delay": 5.693065516631268, "tones": [{"toneNumber": 0, "time": 102.05304709999473, "prePupil": [0, 102.04121480000322], "postPupil": [0, 102.10310750000644]}, {"toneNumber": 1, "time": 103.72727629999281, "prePupil": [0, 103.71552080000401], "postPupil": [0, 103.77737429999979]}], "extrakeypresses": [], "coordinates": [15.625509505713786, 1.7244504280493587], "preSpotPupil": [0, 106.15681859999313], "startTime": 106.17736539998441, "postSpotPupil": [0, 106.73261790000834], "rt": 0.5153314000053797, "response_key": "2", "late": true}
{"trialID": {"id": 2, "triggers": [194], "duration": 0.01}, "hemifield": "right", "block": 1, "sequence_number": 3, "delay": 5.030192813427782, "tones": [{"toneNumber": 2, "time": 110.03541340000811, "prePupil": [0, 110.02423700000509], "postPupil": [0, 110.0855431999953]}], "extrakeypresses": [], "coordinates": [15.108547306376524, -7.961912605611847], "preSpotPupil": [0, 112.80688260000898], "startTime": 112.82682129999739, "postSpotPupil": [0, 113.43067949998658], "rt": 0.5680305999994744, "response_key": "2", "late": true}
{"trialID": {"id": 3, "triggers": [195], "duration": 0.01}, "hemifield": "right", "block": 1, "sequence_number": 4, "delay": 6.901294215561031, "tones": [{"toneNumber": 3, "time": 118.81645349998144, "prePupil": [0, 118.80438059999142], "postPupil": [0, 118.86654089999502]}], "extrakeypresses": [], "coordinates": [15.264484470013388, 7.465953858885241], "preSpotPupil": [0, 121.36543569999048], "startTime": 121.39065200000186, "postSpotPupil": [0, 122.38085339998361], "missed": true}
{"trialID": {"id": 4, "triggers": [196], "duration": 0.01}, "hemifield": "right", "block": 1, "sequence_number": 5, "delay": 3.818927562744653, "tones": [{"toneNumber": 4, "time": 125.93153470000834, "prePupil": [0, 125.91845550001017], "postPupil": [0, 125.98161499999696]}], "extrakeypresses": [], "coordinates": [13.777661441484684, 5.265133596826148], "preSpotPupil": [0, 126.71957960000145], "startTime": 126.73810139999841, "postSpotPupil": [0, 127.72881020000204], "missed": true}
{"trialID": {"id": 5, "triggers": [197], "duration": 0.01}, "hemifield": "right", "block": 1, "sequence_number": 6, "delay": 5.560338030140711, "tones": [{"toneNumber": 5, "time": 132.61390179998125, "prePupil": [0, 132.6022690999962], "postPupil": [0, 132.66396919998806]}], "extrakeypresses": [], "coordinates": [2.909145791121632, -7.164580754481899], "preSpotPupil": [0, 133.80872969998745], "startTime": 133.83702790000825, "postSpotPupil": [0, 134.35895419999724], "rt": 0.48779800001648255, "response_key": "2", "late": true}
{"trialID": {"id": 6, "triggers": [198], "duration": 0.01}, "hemifield": "right", "block": 1, "sequence_number": 7, "delay": 9.446397462064814, "tones": [{"toneNumber": 6, "time": 137.62275380000938, "prePupil": [0, 137.61051810000208], "postPupil": [0, 137.6728262999968]}, {"toneNumber": 7, "time": 141.54146929999115, "prePupil": [0, 141.52950169998803], "postPupil": [0, 141.59154890000354]}], "extrakeypresses": [], "coordinates": [9.941551680001833, -7.270921390902156], "preSpotPupil": [0, 144.8562627999927], "startTime": 144.8851262999815, "postSpotPupil": [0, 145.3230734000099], "rt": 0.3976995999983046, "response_key": "2"}
{"trialID": {"id": 7, "triggers": [199], "duration": 0.01}, "hemifield": "right", "block": 1, "sequence_number": 8, "delay": 4.261890929919318, "tones": [], "extrakeypresses": [], "coordinates": [1.6144791890833412, 6.484598242227269], "preSpotPupil": [0, 150.63633929999196], "startTime": 150.6667493999994, "postSpotPupil": [0, 151.25505479998537], "rt": 0.5530785000009928, "response_key": "2", "late": true}
{"trialID": {"id": 8, "triggers": [200], "duration": 0.01}, "hemifield": "right", "block": 1, "sequence_number": 9, "delay": 2.774979069045629, "tones": [{"toneNumber": 8, "time": 153.62623989998247, "prePupil": [0, 153.61489430000074], "postPupil": [0, 153.67630140000256]}], "extrakeypresses": [], "coordinates": [8.58638320726925, -3.1975371581967664], "preSpotPupil": [0, 155.06669119998696], "startTime": 155.1017096999858, "postSpotPupil": [0, 156.07236120000016], "missed": true}
{"trialID": {"id": 9, "triggers": [201], "duration": 0.01}, "hemifield": "right", "block": 1, "sequence_number": 10, "delay": 8.239508552400219, "tones": [{"toneNumber": 9, "time": 160.20142209998448, "prePupil": [0, 160.190185799991], "postPupil": [0, 160.25151709999773]}], "extrakeypresses": [], "coordinates": [2.7174471014614556, -2.7575033773677875], "preSpotPupil": [0, 164.83019899998908], "startTime": 164.84552549998625, "postSpotPupil": [0, 165.2849295999913], "rt": 0.3971464000060223, "response_key": "2"}
{"trialID": {"id": 10, "triggers": [202], "duration": 0.01}, "hemifield": "right", "block": 1, "sequence_number": 11, "delay": 3.6341629256881145, "tones": [{"toneNumber": 10, "time": 168.71921199999633, "prePupil": [0, 168.70594529999653], "postPupil": [0, 168.76932309998665]}], "extrakeypresses": [], "coordinates": [1.7380262610918342, 2.7565018236587626], "preSpotPupil": [0, 169.97275600000285], "startTime": 169.99539809999987, "postSpotPupil": [0, 170.58330659999046], "rt": 0.5473967000143602, "response_key": "2", "late": true}
{"trialID": {"id": 11, "triggers": [203], "duration": 0.01}, "hemifield": "right", "block": 1, "sequence_number": 12, "delay": 2.7206913869470224, "tones": [], "extrakeypresses": [], "coordinates": [3.4826742636631285, 2.22784185911158], "preSpotPupil": [0, 174.33625059999758], "startTime": 174.36135429999558, "postSpotPupil": [0, 174.79932950000511], "rt": 0.3904214999929536, "response_key": "2"}
{"trialID": {"id": 12, "triggers": [204], "duration": 0.01}, "hemifield": "right", "block": 1, "sequence_number": 13, "delay": 8.708046249988342, "tones": [{"toneNumber": 11, "time": 177.2192961999972, "prePupil": [0, 177.20751330000348], "postPupil": [0, 177.2693755000073]}, {"toneNumber": 12, "time": 178.91053259998444, "prePupil": [0, 178.8979723000084], "postPupil": [0, 178.9605942000053]}, {"toneNumber": 13, "time": 181.04179709998425, "prePupil": [0, 181.02955529998871], "postPupil": [0, 181.0918653999979]}], "extrakeypresses": [], "coordinates": [10.57065903337074, 0.9455944879640299], "preSpotPupil": [0, 184.5573070999817], "startTime": 184.57596839999314, "postSpotPupil": [0, 185.56501029999345], "missed": true}
{"trialID": {"id": 13, "triggers": [205], "duration": 0.01}, "hemifield": "right", "block": 1, "sequence_number": 14, "delay": 6.890817458551917, "tones": [{"toneNumber": 14, "time": 187.9733178000024, "prePupil": [0, 187.961526900006], "postPupil": [0, 188.02339519999805]}, {"toneNumber": 15, "time": 190.48819969999022, "prePupil": [0, 190.4764043999894], "postPupil": [0, 190.53834910001024]}], "extrakeypresses": [188.86788519998663], "coordinates": [12.615553577876922, -7.843907321310219], "preSpotPupil": [0, 192.97419829998398], "startTime": 192.99006300000474, "postSpotPupil": [0, 193.97982780000893], "missed": true}
{"trialID": {"id": 14, "triggers": [206], "duration": 0.01}, "hemifield": "right", "block": 1, "sequence_number": 15, "delay": 2.6955371612439487, "tones": [{"toneNumber": 16, "time": 195.79118939998443, "prePupil": [0, 195.77937119998387], "postPupil": [0, 195.841256899992]}], "extrakeypresses": [], "coordinates": [8.113209178781371, 5.968949136242799], "preSpotPupil": [0, 197.19481129999622], "startTime": 197.22082970000338, "postSpotPupil": [0, 197.7270467999915], "rt": 0.47390129999257624, "response_key": "2", "late": true}
{"trialID": {"id": 15, "triggers": [207], "duration": 0.01}, "hemifield": "right", "block": 1, "sequence_number": 16, "delay": 2.9284171195897457, "tones": [{"toneNumber": 17, "time": 200.51769799998146, "prePupil": [0, 200.50565310000093], "postPupil": [0, 200.56775769998785]}], "extrakeypresses": [], "coordinates": [14.423548036543123, -0.21305501585649722], "preSpotPupil": [0, 201.70556589998887], "startTime": 201.71983849999378, "postSpotPupil": [0, 202.2758790999942], "rt": 0.5173173999937717, "response_key": "2", "late": true}
{"trialID": {"id": 16, "triggers": [208], "duration": 0.01}, "hemifield": "right", "block": 1, "sequence_number": 17, "delay": 6.5473141451082615, "tones": [{"toneNumber": 18, "time": 207.19602899998426, "prePupil": [0, 207.18414810000104], "postPupil": [0, 207.2460962999903]}], "extrakeypresses": [], "coordinates": [11.86455863490326, -4.709556515394754], "preSpotPupil": [0, 209.85620700000436], "startTime": 209.8860626000096, "postSpotPupil": [0, 210.40706719999434], "rt": 0.48039179999614134, "response_key": "2", "late": true}
{"trialID": {"id": 17, "triggers": [209], "duration": 0.01}, "hemifield": "right", "block": 1, "sequence_number": 18, "delay": 2.474993654582314, "tones": [], "extrakeypresses": [], "coordinates": [12.158573967848156, -1.5309131747623992], "preSpotPupil": [0, 213.93120809999527], "startTime": 213.95068760000868, "postSpotPupil": [0, 214.94236210000236], "missed": true}
{"trialID": {"id": 18, "triggers": [210], "duration": 0.01}, "hemifield": "right", "block": 1, "sequence_number": 19, "delay": 6.641907559138109, "tones": [{"toneNumber": 19, "time": 218.092536799988, "prePupil": [0, 218.0803803000017], "postPupil": [0, 218.14262659999076]}], "extrakeypresses": [], "coordinates": [6.097533278961775, 0.7734307276810917], "preSpotPupil": [0, 222.10307700000703], "startTime": 222.13172400000622, "postSpotPupil": [0, 223.10607400001027], "missed": true}
{"trialID": {"id": 19, "triggers": [211], "duration": 0.01}, "hemifield": "left", "block": 2, "sequence_number": 20, "delay": 4.363944007014059, "tones": [{"toneNumber": 20, "time": 227.91309059999185, "prePupil": [0, 227.90013789999648], "postPupil": [0, 227.96315910000703]}, {"toneNumber": 21, "time": 229.66253179998603, "prePupil": [0, 229.65000729999156], "postPupil": [0, 229.7125936000084]}], "extrakeypresses": [226.19232179998653], "coordinates": [-4.323384226682023, -1.665497472943164], "preSpotPupil": [0, 231.042134599993], "startTime": 231.06467890000204, "postSpotPupil": [0, 231.51906019999296], "rt": 0.4171012000006158, "response_key": "2"}
{"trialID": {"id": 20, "triggers": [212], "duration": 0.01}, "hemifield": "left", "block": 2, "sequence_number": 21, "delay": 5.181253434142989, "tones": [{"toneNumber": 22, "time": 234.21311499999138, "prePupil": [0, 234.20100699999603], "postPupil": [0, 234.26317299998482]}, {"toneNumber": 23, "time": 236.05037320000702, "prePupil": [0, 236.03731129999505], "postPupil": [0, 236.1004641999898]}], "extrakeypresses": [], "coordinates": [-6.77931954226894, 6.072306753978825], "preSpotPupil": [0, 237.74993960000575], "startTime": 237.7799859000079, "postSpotPupil": [0, 238.7522573999886], "missed": true}
{"trialID": {"id": 21, "triggers": [213], "duration": 0.01}, "hemifield": "left", "block": 2, "sequence_number": 22, "delay": 6.209884183378588, "tones": [{"toneNumber": 24, "time": 241.31946900000912, "prePupil": [0, 241.30670069999178], "postPupil": [0, 241.36952680000104]}, {"toneNumber": 25, "time": 243.0263352000038, "prePupil": [0, 243.01496959998622], "postPupil": [0, 243.07640639998135]}], "extrakeypresses": [], "coordinates": [-14.200448519615172, 4.445518558727413], "preSpotPupil": [0, 245.48069999998552], "startTime": 245.50996090000262, "postSpotPupil": [0, 246.4829739999841], "missed": true}
{"trialID": {"id": 22, "triggers": [214], "duration": 0.01}, "hemifield": "left", "block": 2, "sequence_number": 23, "delay": 5.339253476711814, "tones": [{"toneNumber": 26, "time": 250.21480489999522, "prePupil": [0, 250.20300039998256], "postPupil": [0, 250.26486649998697]}], "extrakeypresses": [], "coordinates": [-16.002326022977297, 4.600332394055696], "preSpotPupil": [0, 252.34037679998437], "startTime": 252.3575698999921, "postSpotPupil": [0, 253.3481335999968], "missed": true}
{"trialID": {"id": 23, "triggers": [215], "duration": 0.01}, "hemifield": "left", "block": 2, "sequence_number": 24, "delay": 8.488519817444747, "tones": [{"toneNumber": 27, "time": 255.16697950000525, "prePupil": [0, 255.15455030000885], "postPupil": [0, 255.2170569000009]}, {"toneNumber": 28, "time": 258.291298199998, "prePupil": [0, 258.2787376999913], "postPupil": [0, 258.3413658000063]}, {"toneNumber": 29, "time": 259.97032970000873, "prePupil": [0, 259.95800449998933], "postPupil": [0, 260.02039580000564]}], "extrakeypresses": [], "coordinates": [-9.890426638789478, 6.625526700382567], "preSpotPupil": [0, 262.35496440000134], "startTime": 262.3718133000075, "postSpotPupil": [0, 263.01089070001035], "rt": 0.6028766999952495, "response_key": "2", "late": true}
{"trialID": {"id": 24, "triggers": [216], "duration": 0.01}, "hemifield": "left", "block": 2, "sequence_number": 25, "delay": 3.29300600971559, "tones": [], "extrakeypresses": [], "coordinates": [-4.864432975818868, 7.387045096871466], "preSpotPupil": [0, 267.3364440999867], "startTime": 267.35384429999976, "postSpotPupil": [0, 268.0929698999971], "rt": 0.696268500003498, "response_key": "2", "late": true}
{"trialID": {"id": 25, "triggers": [217], "duration": 0.01}, "hemifield": "left", "block": 2, "sequence_number": 26, "delay": 5.141898712723131, "tones": [{"toneNumber": 30, "time": 273.1341001999972, "prePupil": [0, 273.12222190000466], "postPupil": [0, 273.1841579999891]}], "extrakeypresses": [], "coordinates": [-4.826125173329649, 7.242913122676319], "preSpotPupil": [0, 274.2697307000053], "startTime": 274.2865641999815, "postSpotPupil": [0, 275.276088899991], "missed": true}
{"trialID": {"id": 26, "triggers": [218], "duration": 0.01}, "hemifield": "left", "block": 2, "sequence_number": 27, "delay": 7.173353403810901, "tones": [{"toneNumber": 31, "time": 277.0220835999935, "prePupil": [0, 277.0096871999849], "postPupil": [0, 277.0721932000015]}, {"toneNumber": 32, "time": 278.9176049999951, "prePupil": [0, 278.90552729999763], "postPupil": [0, 278.9676707999897]}], "extrakeypresses": [], "coordinates": [-14.470470822763222, -1.0581432046568269], "preSpotPupil": [0, 282.9661671000067], "startTime": 282.9838751000061, "postSpotPupil": [0, 283.97433269998874], "missed": true}
{"trialID": {"id": 27, "triggers": [219], "duration": 0.01}, "hemifield": "left", "block": 2, "sequence_number": 28, "delay": 5.6644140699002286, "tones": [{"toneNumber": 33, "time": 286.33254750000197, "prePupil": [0, 286.3207070000062], "postPupil": [0, 286.38260879999143]}, {"toneNumber": 34, "time": 288.2768229999929, "prePupil": [0, 288.2651832999836], "postPupil": [0, 288.32688479998615]}], "extrakeypresses": [], "coordinates": [-14.543402188421181, 7.009565027202804], "preSpotPupil": [0, 290.1561950999894], "startTime": 290.1819322000083, "postSpotPupil": [0, 291.15671119999024], "missed": true}
{"trialID": {"id": 28, "triggers": [220], "duration": 0.01}, "hemifield": "left", "block": 2, "sequence_number": 29, "delay": 3.5554919826180713, "tones": [], "extrakeypresses": [], "coordinates": [-12.51885638040774, 4.909346983403482], "preSpotPupil": [0, 295.2298959000036], "startTime": 295.2479350999929, "postSpotPupil": [0, 295.93619459998445], "rt": 0.6451362000079826, "response_key": "2", "late": true}
{"trialID": {"id": 29, "triggers": [221], "duration": 0.01}, "hemifield": "left", "block": 2, "sequence_number": 30, "delay": 5.862929390552395, "tones": [{"toneNumber": 35, "time": 301.2302810999972, "prePupil": [0, 301.21875480000745], "postPupil": [0, 301.28033039998263]}], "extrakeypresses": [], "coordinates": [-8.527002681671327, 4.768213763562041], "preSpotPupil": [0, 302.83216950000497], "startTime": 302.862487699982, "postSpotPupil": [0, 303.3346606999985], "rt": 0.42956560000311583, "response_key": "2"}
{"trialID": {"id": 30, "triggers": [222], "duration": 0.01}, "hemifield": "left", "block": 2, "sequence_number": 31, "delay": 2.2395275996032895, "tones": [], "extrakeypresses": [], "coordinates": [-2.4015771185935684, 3.0596964392801347], "preSpotPupil": [0, 306.62552709999727], "startTime": 306.6446850000066, "postSpotPupil": [0, 307.10027910000645], "rt": 0.41921419999562204, "response_key": "2"}
{"trialID": {"id": 31, "triggers": [223], "duration": 0.01}, "hemifield": "left", "block": 2, "sequence_number": 32, "delay": 4.343215545775475, "tones": [{"toneNumber": 36, "time": 309.5319274000067, "prePupil": [0, 309.52054090000456], "postPupil": [0, 309.58203910000157]}], "extrakeypresses": [], "coordinates": [-7.931115822085575, -4.541178003700012], "preSpotPupil": [0, 312.4932994999981], "startTime": 312.51012359999004, "postSpotPupil": [0, 313.50027230000705], "missed": true}
{"trialID": {"id": 32, "triggers": [224], "duration": 0.01}, "hemifield": "left", "block": 2, "sequence_number": 33, "delay": 8.027014996776417, "tones": [{"toneNumber": 37, "time": 316.54165709999506, "prePupil": [0, 316.5294856999826], "postPupil": [0, 316.5917205000005]}, {"toneNumber": 38, "time": 320.9557223999873, "prePupil": [0, 320.94437990000006], "postPupil": [0, 321.0057872000034]}], "extrakeypresses": [], "coordinates": [-13.235149805571766, 3.7457283142405284], "preSpotPupil": [0, 322.0433461999928], "startTime": 322.0569957999978, "postSpotPupil": [0, 323.0485180999967], "missed": true}
{"trialID": {"id": 33, "triggers": [225], "duration": 0.01}, "hemifield": "left", "block": 2, "sequence_number": 34, "delay": 6.377679605567806, "tones": [{"toneNumber": 39, "time": 326.3119747999881, "prePupil": [0, 326.3004368999973], "postPupil": [0, 326.36203409999143]}, {"toneNumber": 40, "time": 329.2121451999992, "prePupil": [0, 329.2001212000032], "postPupil": [0, 329.26220579998335]}], "extrakeypresses": [], "coordinates": [-4.184326319423853, 6.223335159207833], "preSpotPupil": [0, 329.94478719998733], "startTime": 329.9728575999907, "postSpotPupil": [0, 330.6109792999923], "rt": 0.5963440999912564, "response_key": "2", "late": true}
{"trialID": {"id": 34, "triggers": [226], "duration": 0.01}, "hemifield": "left", "block": 2, "sequence_number": 35, "delay": 4.543497058934329, "tones": [{"toneNumber": 41, "time": 335.0620893999876, "prePupil": [0, 335.050364499999], "postPupil": [0, 335.1121955999988]}], "extrakeypresses": [], "coordinates": [-11.543533913641657, -1.4834923678908183], "preSpotPupil": [0, 336.188614099985], "startTime": 336.2042797000031, "postSpotPupil": [0, 337.19402550000814], "missed": true}
{"trialID": {"id": 35, "triggers": [227], "duration": 0.01}, "hemifield": "left", "block": 2, "sequence_number": 36, "delay": 7.349830639308466, "tones": [{"toneNumber": 42, "time": 341.8283999999985, "prePupil": [0, 341.81640250000055], "postPupil": [0, 341.87847709999187]}], "extrakeypresses": [], "coordinates": [-3.8123851948962635, -7.142619985338747], "preSpotPupil": [0, 345.0631127000088], "startTime": 345.0848122999887, "postSpotPupil": [0, 346.07616170000983], "missed": true}
{"trialID": {"id": 36, "triggers": [228], "duration": 0.01}, "hemifield": "left", "block": 2, "sequence_number": 37, "delay": 3.7650531371560065, "tones": [], "extrakeypresses": [], "coordinates": [-11.707589161406478, -3.2128351132492288], "preSpotPupil": [0, 350.35932570000296], "startTime": 350.384077900002, "postSpotPupil": [0, 351.3743039999972], "missed": true}
{"trialID": {"id": 37, "triggers": [229], "duration": 0.01}, "hemifield": "right", "block": 3, "sequence_number": 38, "delay": 4.691805269573546, "tones": [{"toneNumber": 43, "time": 357.35480649999226, "prePupil": [0, 357.3427897999936], "postPupil": [0, 357.40490679998766]}], "extrakeypresses": [], "coordinates": [10.357530683455522, -6.316199371302993], "preSpotPupil": [0, 359.6380578999815], "startTime": 359.6669030000048, "postSpotPupil": [0, 360.4872802000027], "rt": 0.7778646000078879, "response_key": "2", "late": true}
{"trialID": {"id": 38, "triggers": [230], "duration": 0.01}, "hemifield": "right", "block": 3, "sequence_number": 39, "delay": 8.171848268603835, "tones": [{"toneNumber": 44, "time": 365.2539693999861, "prePupil": [0, 365.24183029998676], "postPupil": [0, 365.3040506999823]}], "extrakeypresses": [], "coordinates": [8.220615545271546, 4.303409117778347], "preSpotPupil": [0, 369.6918815000099], "startTime": 369.71246589999646, "postSpotPupil": [0, 370.7030838000064], "missed": true}
{"trialID": {"id": 39, "triggers": [231], "duration": 0.01}, "hemifield": "right", "block": 3, "sequence_number": 40, "delay": 7.882080959840028, "tones": [{"toneNumber": 45, "time": 374.04730000000563, "prePupil": [0, 374.0354817000043], "postPupil": [0, 374.0973682999902]}], "extrakeypresses": [], "coordinates": [11.03383342637519, -3.627024184554105], "preSpotPupil": [0, 379.1016268999956], "startTime": 379.12746889999835, "postSpotPupil": [0, 380.1171450999973], "missed": true}
{"trialID": {"id": 40, "triggers": [232], "duration": 0.01}, "hemifield": "right", "block": 3, "sequence_number": 41, "delay": 8.50806501877428, "tones": [{"toneNumber": 46, "time": 382.0459782999824, "prePupil": [0, 382.0345376000041], "postPupil": [0, 382.09604760000366]}, {"toneNumber": 47, "time": 386.53031770000234, "prePupil": [0, 386.5182480000076], "postPupil": [0, 386.58037039998453]}], "extrakeypresses": [], "coordinates": [4.886164757784689, 1.9045139438417547], "preSpotPupil": [0, 389.1432444000093], "startTime": 389.1568617000012, "postSpotPupil": [0, 390.1480098000029], "missed": true}
{"trialID": {"id": 41, "triggers": [233], "duration": 0.01}, "hemifield": "right", "block": 3, "sequence_number": 42, "delay": 8.436209719216622, "tones": [{"toneNumber": 48, "time": 392.1683661999996, "prePupil": [0, 392.1559522000025], "postPupil": [0, 392.21847719998914]}, {"toneNumber": 49, "time": 396.62227520000306, "prePupil": [0, 396.61040770000545], "postPupil": [0, 396.67234029999236]}], "extrakeypresses": [], "coordinates": [9.454459590685833, 1.342216868497779], "preSpotPupil": [0, 399.10294529999373], "startTime": 399.1216895999969, "postSpotPupil": [0, 400.1121595999866], "missed": true}
{"trialID": {"id": 42, "triggers": [234], "duration": 0.01}, "hemifield": "right", "block": 3, "sequence_number": 43, "delay": 6.7945674447582, "tones": [{"toneNumber": 50, "time": 404.44639559998177, "prePupil": [0, 404.4350094999827], "postPupil": [0, 404.49645869998494]}, {"toneNumber": 51, "time": 406.51585150000756, "prePupil": [0, 406.50359509998816], "postPupil": [0, 406.56591839998146]}], "extrakeypresses": [], "coordinates": [7.395118424932522, -7.237281278322776], "preSpotPupil": [0, 407.4243313999905], "startTime": 407.45326509998995, "postSpotPupil": [0, 408.427165400004], "missed": true, "alarm": 408.43955099998857}
{"trialID": {"id": 43, "triggers": [235], "duration": 0.01}, "hemifield": "right", "block": 3, "sequence_number": 44, "delay": 7.003106284140751, "tones": [{"toneNumber": 52, "time": 413.4659522000002, "prePupil": [0, 413.4545130000042], "postPupil": [0, 413.51603110000724]}], "extrakeypresses": [], "coordinates": [5.774861221883622, 8.043500638564096], "preSpotPupil": [0, 415.9587564000103], "startTime": 415.9848892999871, "postSpotPupil": [0, 416.97499779998907], "missed": true, "alarm": 416.98688789998414}
{"trialID": {"id": 44, "triggers": [236], "duration": 0.01}, "hemifield": "right", "block": 3, "sequence_number": 45, "delay": 5.189163927702114, "tones": [{"toneNumber": 53, "time": 421.84504610000295, "prePupil": [0, 421.8321968000091], "postPupil": [0, 421.895150700002]}], "extrakeypresses": [420.7509003999876], "coordinates": [6.868401266703847, -6.9633194837623895], "preSpotPupil": [0, 422.69384769999306], "startTime": 422.71586450000177, "postSpotPupil": [0, 423.188496399991], "rt": 0.4278004000079818, "response_key": "2"}
{"trialID": {"id": 45, "triggers": [237], "duration": 0.01}, "hemifield": "right", "block": 3, "sequence_number": 46, "delay": 5.553112101158833, "tones": [{"toneNumber": 54, "time": 426.6220248999889, "prePupil": [0, 426.6105656999862], "postPupil": [0, 426.6720953999902]}], "extrakeypresses": [], "coordinates": [1.9473250518492993, 5.826277526794295], "preSpotPupil": [0, 429.79247859999305], "startTime": 429.81863480000175, "postSpotPupil": [0, 430.3033456999983], "rt": 0.4499970000179019, "response_key": "2"}
{"trialID": {"id": 46, "triggers": [238], "duration": 0.01}, "hemifield": "right", "block": 3, "sequence_number": 47, "delay": 8.809116247593547, "tones": [{"toneNumber": 55, "time": 434.1659314999997, "prePupil": [0, 434.15451039999607], "postPupil": [0, 434.21602309998707]}, {"toneNumber": 56, "time": 436.8901862000057, "prePupil": [0, 436.8780400999822], "postPupil": [0, 436.9403301999846]}], "extrakeypresses": [], "coordinates": [1.3850302945988044, 6.617632438073798], "preSpotPupil": [0, 440.1623120000004], "startTime": 440.180211400002, "postSpotPupil": [0, 440.65095839998685], "rt": 0.43774049999774434, "response_key": "2"}
{"trialID": {"id": 47, "triggers": [239], "duration": 0.01}, "hemifield": "right", "block": 3, "sequence_number": 48, "delay": 1.975119048525734, "tones": [], "extrakeypresses": [], "coordinates": [6.108059415579505, 4.7455056310867345], "preSpotPupil": [0, 443.6735939999926], "startTime": 443.6943079000048, "postSpotPupil": [0, 444.09989149999456], "rt": 0.35941010000533424, "response_key": "2"}
{"trialID": {"id": 48, "triggers": [240], "duration": 0.01}, "hemifield": "right", "block": 3, "sequence_number": 49, "delay": 1.5165778995854042, "tones": [], "extrakeypresses": [], "coordinates": [4.40138459491955, 6.001812233347803], "preSpotPupil": [0, 446.66923460000544], "startTime": 446.6950563999999, "postSpotPupil": [0, 447.16599449998466], "rt": 0.4246864999877289, "response_key": "2"}
{"trialID": {"id": 49, "triggers": [241], "duration": 0.01}, "hemifield": "right", "block": 3, "sequence_number": 50, "delay": 7.932000297905065, "tones": [{"toneNumber": 57, "time": 449.4324982999824, "prePupil": [0, 449.4205183000013], "postPupil": [0, 449.4825728999858]}, {"toneNumber": 58, "time": 453.80714940000325, "prePupil": [0, 453.7953649999981], "postPupil": [0, 453.8572167000093]}], "extrakeypresses": [], "coordinates": [8.479980790505829, 5.127515637014875], "preSpotPupil": [0, 456.14673049998237], "startTime": 456.17634199999156, "postSpotPupil": [0, 456.63026879998506], "rt": 0.4212744999967981, "response_key": "2"}
{"trialID": {"id": 50, "triggers": [242], "duration": 0.01}, "hemifield": "right", "block": 3, "sequence_number": 51, "delay": 5.200522051251985, "tones": [{"toneNumber": 59, "time": 459.6132510000025, "prePupil": [0, 459.60036079998827], "postPupil": [0, 459.6633359999978]}], "extrakeypresses": [], "coordinates": [7.3778897320013455, 6.135364845171912], "preSpotPupil": [0, 462.87819640000816], "startTime": 462.90658700000495, "postSpotPupil": [0, 463.36186929998803], "rt": 0.4093276999774389, "response_key": "2"}
{"trialID": {"id": 51, "triggers": [243], "duration": 0.01}, "hemifield": "right", "block": 3, "sequence_number": 52, "delay": 4.92855433032513, "tones": [{"toneNumber": 60, "time": 467.45716799999354, "prePupil": [0, 467.44502179999836], "postPupil": [0, 467.5072543999995]}], "extrakeypresses": [], "coordinates": [1.4701058720531208, 4.198219519391078], "preSpotPupil": [0, 469.34197660000063], "startTime": 469.3737445999868, "postSpotPupil": [0, 469.77683079999406], "rt": 0.354936199990334, "response_key": "2"}
{"trialID": {"id": 52, "triggers": [244], "duration": 0.01}, "hemifield": "right", "block": 3, "sequence_number": 53, "delay": 7.965899331437539, "tones": [{"toneNumber": 61, "time": 473.12543660000665, "prePupil": [0, 473.1140570999996], "postPupil": [0, 473.1754995000083]}, {"toneNumber": 62, "time": 474.91367889998946, "prePupil": [0, 474.90172090000124], "postPupil": [0, 474.9637556000089]}], "extrakeypresses": [], "coordinates": [7.512516030349194, 4.287397076850311], "preSpotPupil": [0, 478.7924320999882], "startTime": 478.82064869999886, "postSpotPupil": [0, 479.7931604000041], "missed": true}
{"trialID": {"id": 53, "triggers": [245], "duration": 0.01}, "hemifield": "left", "block": 4, "sequence_number": 54, "delay": 7.233217438223734, "tones": [{"toneNumber": 63, "time": 485.73749480000697, "prePupil": [0, 485.72606919999816], "postPupil": [0, 485.78756540000904]}], "extrakeypresses": [482.8790432999958], "coordinates": [-7.951717079259328, 4.57961260133272], "preSpotPupil": [0, 490.5987948999973], "startTime": 490.63684019999346, "postSpotPupil": [0, 491.03794049998396], "rt": 0.3857129000243731, "response_key": "2"}
{"trialID": {"id": 54, "triggers": [246], "duration": 0.01}, "hemifield": "left", "block": 4, "sequence_number": 55, "delay": 7.026235420758608, "tones": [{"toneNumber": 64, "time": 495.92614570001024, "prePupil": [0, 495.91478140000254], "postPupil": [0, 495.9762097999919]}], "extrakeypresses": [], "coordinates": [-6.0125252476691635, -6.334719133989271], "preSpotPupil": [0, 499.1141618999827], "startTime": 499.13141989998985, "postSpotPupil": [0, 500.1213346000004], "missed": true}
{"trialID": {"id": 55, "triggers": [247], "duration": 0.01}, "hemifield": "left", "block": 4, "sequence_number": 56, "delay": 4.470186353645585, "tones": [{"toneNumber": 65, "time": 501.9501862000034, "prePupil": [0, 501.9383450000023], "postPupil": [0, 502.0002597999992]}], "extrakeypresses": [], "coordinates": [-1.3446959804440741, 3.974467783610427], "preSpotPupil": [0, 505.11061159998644], "startTime": 505.12866550000035, "postSpotPupil": [0, 505.6850555999845], "rt": 0.510052600002382, "response_key": "2", "late": true}
{"trialID": {"id": 56, "triggers": [248], "duration": 0.01}, "hemifield": "left", "block": 4, "sequence_number": 57, "delay": 5.605385068641062, "tones": [{"toneNumber": 66, "time": 510.4004847999895, "prePupil": [0, 510.3880752999976], "postPupil": [0, 510.4505487999995]}], "extrakeypresses": [511.26790320000146], "coordinates": [-9.317254310355052, 2.524041363019535], "preSpotPupil": [0, 512.3250602000044], "startTime": 512.3457754999981, "postSpotPupil": [0, 512.8002237000037], "rt": 0.40624599999864586, "response_key": "2"}
{"trialID": {"id": 57, "triggers": [249], "duration": 0.01}, "hemifield": "left", "block": 4, "sequence_number": 58, "delay": 5.020769122592325, "tones": [{"toneNumber": 67, "time": 515.9322059999977, "prePupil": [0, 515.920397799986], "postPupil": [0, 515.9822731000022]}], "extrakeypresses": [], "coordinates": [-15.478993368560616, -7.87107032831681], "preSpotPupil": [0, 518.8702603999991], "startTime": 518.892824599985, "postSpotPupil": [0, 519.8833724999859], "missed": true}
{"trialID": {"id": 58, "triggers": [250], "duration": 0.01}, "hemifield": "left", "block": 4, "sequence_number": 59, "delay": 2.6650354572697195, "tones": [], "extrakeypresses": [], "coordinates": [-2.732326580307376, 4.212474482279282], "preSpotPupil": [0, 523.0664534000098], "startTime": 523.0921250999963, "postSpotPupil": [0, 524.0818675000046], "missed": true}
{"trialID": {"id": 59, "triggers": [251], "duration": 0.01}, "hemifield": "left", "block": 4, "sequence_number": 60, "delay": 2.371682402409813, "tones": [], "extrakeypresses": [], "coordinates": [-5.580549987523826, 3.0315247639010643], "preSpotPupil": [0, 526.9722533999884], "startTime": 526.9912290000066, "postSpotPupil": [0, 527.6296961999906], "rt": 0.6015210000041407, "response_key": "2", "late": true}
{"trialID": {"id": 60, "triggers": [252], "duration": 0.01}, "hemifield": "left", "block": 4, "sequence_number": 61, "delay": 4.183349686381169, "tones": [{"toneNumber": 68, "time": 529.7979243999871, "prePupil": [0, 529.7862260999973], "postPupil": [0, 529.8480062999879]}], "extrakeypresses": [], "coordinates": [-12.170691580124489, 3.138777267830081], "preSpotPupil": [0, 532.8496434999979], "startTime": 532.873703899997, "postSpotPupil": [0, 533.4114815999928], "rt": 0.5020386000105646, "response_key": "2", "late": true}
{"trialID": {"id": 61, "triggers": [253], "duration": 0.01}, "hemifield": "left", "block": 4, "sequence_number": 62, "delay": 5.119521912539676, "tones": [{"toneNumber": 69, "time": 538.8295488999865, "prePupil": [0, 538.8169840000046], "postPupil": [0, 538.8796218000061]}], "extrakeypresses": [], "coordinates": [-9.070159727487434, -1.3952650475677428], "preSpotPupil": [0, 539.5647487999813], "startTime": 539.5879000999848, "postSpotPupil": [0, 540.0267952999857], "rt": 0.4018235999974422, "response_key": "2"}
{"trialID": {"id": 62, "triggers": [254], "duration": 0.01}, "hemifield": "left", "block": 4, "sequence_number": 63, "delay": 6.707486284830935, "tones": [{"toneNumber": 70, "time": 543.3761147999903, "prePupil": [0, 543.3635700999876], "postPupil": [0, 543.4261956999835]}, {"toneNumber": 71, "time": 545.4704298999859, "prePupil": [0, 545.4579793000012], "postPupil": [0, 545.5204844999826]}, {"toneNumber": 72, "time": 547.103866599995, "prePupil": [0, 547.0918655999994], "postPupil": [0, 547.1539361999894]}], "extrakeypresses": [], "coordinates": [-9.83650285765385, -1.4611578963580483], "preSpotPupil": [0, 547.7840649999853], "startTime": 547.8026264999935, "postSpotPupil": [0, 548.3745366999938], "rt": 0.5341870999836829, "response_key": "2", "late": true}
{"trialID": {"id": 63, "triggers": [129, 192], "duration": 0.02}, "hemifield": "left", "block": 4, "sequence_number": 64, "delay": 3.0473330455715626, "tones": [], "extrakeypresses": [], "coordinates": [-14.854201752168299, -3.4669154319306106], "preSpotPupil": [0, 552.46778549999], "startTime": 552.4848318999866, "postSpotPupil": [0, 553.4751951000071], "missed": true}
{"trialID": {"id": 64, "triggers": [129, 193], "duration": 0.02}, "hemifield": "left", "block": 4, "sequence_number": 65, "delay": 7.598639878900297, "tones": [{"toneNumber": 73, "time": 555.4273996999837, "prePupil": [0, 555.4151804999856], "postPupil": [0, 555.4774777999846]}, {"toneNumber": 74, "time": 557.1301413000037, "prePupil": [0, 557.1177366999909], "postPupil": [0, 557.1802094999875]}, {"toneNumber": 75, "time": 559.9298461999861, "prePupil": [0, 559.9169250999985], "postPupil": [0, 559.9799504999828]}], "extrakeypresses": [], "coordinates": [-6.014624502960036, -8.541874279543004], "preSpotPupil": [0, 561.6036613000033], "startTime": 561.6335843999987, "postSpotPupil": [0, 562.3544653999852], "rt": 0.6872622999944724, "response_key": "2", "late": true}
{"trialID": {"id": 65, "triggers": [129, 194], "duration": 0.02}, "hemifield": "left", "block": 4, "sequence_number": 66, "delay": 9.435033077607208, "tones": [{"toneNumber": 76, "time": 564.9361256999837, "prePupil": [0, 564.924363099999], "postPupil": [0, 564.986211099982]}, {"toneNumber": 77, "time": 569.7859777999984, "prePupil": [0, 569.7746834999998], "postPupil": [0, 569.8360448000021]}, {"toneNumber": 78, "time": 571.9605277999945, "prePupil": [0, 571.9490589000052], "postPupil": [0, 572.0106427999854]}], "extrakeypresses": [], "coordinates": [-12.779740853757984, -7.307179106137111], "preSpotPupil": [0, 572.8337312999938], "startTime": 572.8645711999852, "postSpotPupil": [0, 573.3684667999914], "rt": 0.465192500007106, "response_key": "2", "late": true}
{"trialID": {"id": 66, "triggers": [129, 195], "duration": 0.02}, "hemifield": "left", "block": 4, "sequence_number": 67, "delay": 8.634687680186122, "tones": [{"toneNumber": 79, "time": 576.0767133999907, "prePupil": [0, 576.0644001000037], "postPupil": [0, 576.1268192999996]}, {"toneNumber": 80, "time": 580.159743199998, "prePupil": [0, 580.1465365999902], "postPupil": [0, 580.2098167999939]}], "extrakeypresses": [], "coordinates": [-10.643727512286587, 7.248107793742081], "preSpotPupil": [0, 583.0648091000039], "startTime": 583.0948897000053, "postSpotPupil": [0, 584.0673452999908], "missed": true}
{"trialID": {"id": 67, "triggers": [129, 196], "duration": 0.02}, "hemifield": "left", "block": 4, "sequence_number": 68, "delay": 7.9101255805801785, "tones": [{"toneNumber": 81, "time": 588.365765399998, "prePupil": [0, 588.353495599993], "postPupil": [0, 588.4158382999885]}, {"toneNumber": 82, "time": 591.311735299998, "prePupil": [0, 591.3001797999896], "postPupil": [0, 591.3617915000068]}], "extrakeypresses": [], "coordinates": [-14.41856081128779, 8.461119992343116], "preSpotPupil": [0, 592.5077168999997], "startTime": 592.5246176999935, "postSpotPupil": [0, 593.5155584999884], "missed": true}
{"trialID": {"id": 68, "triggers": [129, 197], "duration": 0.02}, "hemifield": "left", "block": 4, "sequence_number": 69, "delay": 2.277546975110317, "tones": [], "extrakeypresses": [], "coordinates": [-7.467487092728266, 3.25719573914974], "preSpotPupil": [0, 596.3234926000005], "startTime": 596.3400588000077, "postSpotPupil": [0, 596.7461884999939], "rt": 0.3707627000112552, "response_key": "2"}
{"trialID": {"id": 69, "triggers": [129, 198], "duration": 0.02}, "hemifield": "left", "block": 4, "sequence_number": 70, "delay": 1.7357167291714237, "tones": [], "extrakeypresses": [], "coordinates": [-15.47894060601758, -3.258768011515179], "preSpotPupil": [0, 599.5433647999889], "startTime": 599.5753936999827, "postSpotPupil": [0, 600.1621444000048], "rt": 0.5454943999939132, "response_key": "2", "late": true}
{"trialID": {"id": 70, "triggers": [129, 199], "duration": 0.02}, "hemifield": "left", "block": 4, "sequence_number": 71, "delay": 8.866973317750702, "tones": [{"toneNumber": 83, "time": 604.0861573999864, "prePupil": [0, 604.0746242000023], "postPupil": [0, 604.136227799987]}, {"toneNumber": 84, "time": 607.6121241000073, "prePupil": [0, 607.6001149000076], "postPupil": [0, 607.6622037999914]}], "extrakeypresses": [605.6878887999919], "coordinates": [-16.095422512471934, 4.966439314221004], "preSpotPupil": [0, 610.0731706999941], "startTime": 610.1070885999943, "postSpotPupil": [0, 611.0771194999979], "missed": true}
{"trialID": {"id": 71, "triggers": [129, 200], "duration": 0.02}, "hemifield": "right", "block": 5, "sequence_number": 72, "delay": 8.390778874608227, "tones": [{"toneNumber": 85, "time": 615.9641668999975, "prePupil": [0, 615.9520836999873], "postPupil": [0, 616.0142399999895]}, {"toneNumber": 86, "time": 619.7615888, "prePupil": [0, 619.749593399989], "postPupil": [0, 619.8116583999945]}], "extrakeypresses": [], "coordinates": [7.96555937053937, 1.6785386403903626], "preSpotPupil": [0, 623.0520070999919], "startTime": 623.067690099997, "postSpotPupil": [0, 623.623033699987], "rt": 0.523117699980503, "response_key": "2", "late": true}
{"trialID": {"id": 72, "triggers": [129, 201], "duration": 0.02}, "hemifield": "right", "block": 5, "sequence_number": 73, "delay": 5.950484718870645, "tones": [{"toneNumber": 87, "time": 627.4237161999918, "prePupil": [0, 627.4118667999865], "postPupil": [0, 627.4738320999895]}, {"toneNumber": 88, "time": 629.7087296999816, "prePupil": [0, 629.6970343999856], "postPupil": [0, 629.7587886999827]}], "extrakeypresses": [], "coordinates": [13.032561605093486, -4.810605544489929], "preSpotPupil": [0, 630.6196814999857], "startTime": 630.6507031999936, "postSpotPupil": [0, 631.622262799996], "missed": true}
{"trialID": {"id": 73, "triggers": [129, 202], "duration": 0.02}, "hemifield": "right", "block": 5, "sequence_number": 74, "delay": 2.882411053631607, "tones": [{"toneNumber": 89, "time": 634.141888299986, "prePupil": [0, 634.1300540000084], "postPupil": [0, 634.1919728000066]}], "extrakeypresses": [], "coordinates": [1.506289577512455, -0.609850520000105], "preSpotPupil": [0, 635.0342535999953], "startTime": 635.0638960000069, "postSpotPupil": [0, 635.553474699991], "rt": 0.44871519997832365, "response_key": "2"}
{"trialID": {"id": 74, "triggers": [129, 203], "duration": 0.02}, "hemifield": "right", "block": 5, "sequence_number": 75, "delay": 1.8486676350798392, "tones": [], "extrakeypresses": [], "coordinates": [10.807557173391722, -4.155756776283315], "preSpotPupil": [0, 638.4631888000004], "startTime": 638.4806065000012, "postSpotPupil": [0, 639.0356067999965], "rt": 0.5183400000096299, "response_key": "2", "late": true}
{"trialID": {"id": 75, "triggers": [129, 204], "duration": 0.02}, "hemifield": "right", "block": 5, "sequence_number": 76, "delay": 6.807756578169377, "tones": [{"toneNumber": 90, "time": 642.9879768000101, "prePupil": [0, 642.9758380999847], "postPupil": [0, 643.0380448999931]}], "extrakeypresses": [], "coordinates": [3.674195753913144, 3.12813791408872], "preSpotPupil": [0, 646.8908674999839], "startTime": 646.9119217999978, "postSpotPupil": [0, 647.9019188999955], "missed": true}
{"trialID": {"id": 76, "triggers": [129, 205], "duration": 0.02}, "hemifield": "right", "block": 5, "sequence_number": 77, "delay": 9.12930378970236, "tones": [{"toneNumber": 91, "time": 650.8156873999978, "prePupil": [0, 650.8035639000009], "postPupil": [0, 650.8657581000007]}, {"toneNumber": 92, "time": 654.2906694999838, "prePupil": [0, 654.2779489000095], "postPupil": [0, 654.3407372999936]}], "extrakeypresses": [651.9877855000086], "coordinates": [12.825335632358836, -2.279958060859056], "preSpotPupil": [0, 657.5610108999826], "startTime": 657.5930853000027, "postSpotPupil": [0, 658.5658587999933], "missed": true}
{"trialID": {"id": 77, "triggers": [129, 206], "duration": 0.02}, "hemifield": "right", "block": 5, "sequence_number": 78, "delay": 6.654426339130661, "tones": [{"toneNumber": 93, "time": 663.3302746999834, "prePupil": [0, 663.3180555999861], "postPupil": [0, 663.3803605999856]}], "extrakeypresses": [], "coordinates": [9.100612096293165, -6.746068478212085], "preSpotPupil": [0, 665.7499475000077], "startTime": 665.7737889999989, "postSpotPupil": [0, 666.3287552999973], "rt": 0.5129816000116989, "response_key": "2", "late": true}
{"trialID": {"id": 78, "triggers": [129, 207], "duration": 0.02}, "hemifield": "right", "block": 5, "sequence_number": 79, "delay": 5.928856266983018, "tones": [{"toneNumber": 94, "time": 670.4964523999952, "prePupil": [0, 670.4835779999848], "postPupil": [0, 670.5465356000059]}], "extrakeypresses": [], "coordinates": [3.103828197882169, 8.478759654831682], "preSpotPupil": [0, 673.3011807999865], "startTime": 673.3217377999972, "postSpotPupil": [0, 674.3120301000017], "missed": true}
{"trialID": {"id": 79, "triggers": [129, 208], "duration": 0.02}, "hemifield": "right", "block": 5, "sequence_number": 80, "delay": 8.137655819789401, "tones": [{"toneNumber": 95, "time": 677.4269027999835, "prePupil": [0, 677.4148410999915], "postPupil": [0, 677.4770126999938]}, {"toneNumber": 96, "time": 681.4848638999974, "prePupil": [0, 681.472949899995], "postPupil": [0, 681.534931800008]}], "extrakeypresses": [], "coordinates": [10.31805236517681, 6.5746846751729855], "preSpotPupil": [0, 682.9783241999976], "startTime": 683.0023346999951, "postSpotPupil": [0, 683.9932440999837], "missed": true}
{"trialID": {"id": 80, "triggers": [129, 209], "duration": 0.02}, "hemifield": "right", "block": 5, "sequence_number": 81, "delay": 3.8094846203901023, "tones": [{"toneNumber": 97, "time": 685.5793656999886, "prePupil": [0, 685.5661765999976], "postPupil": [0, 685.6294675999961]}], "extrakeypresses": [], "coordinates": [2.549971134043698, 7.974853929416971], "preSpotPupil": [0, 688.3315199000062], "startTime": 688.3507808999857, "postSpotPupil": [0, 689.3415396999917], "missed": true}
{"trialID": {"id": 81, "triggers": [129, 210], "duration": 0.02}, "hemifield": "right", "block": 5, "sequence_number": 82, "delay": 4.5889438247992125, "tones": [{"toneNumber": 98, "time": 691.1153292999952, "prePupil": [0, 691.1031796000025], "postPupil": [0, 691.1653959999967]}, {"toneNumber": 99, "time": 692.893084899988, "prePupil": [0, 692.8805887000053], "postPupil": [0, 692.9431664999865]}], "extrakeypresses": [], "coordinates": [3.741304044450082, 5.1902307937541785], "preSpotPupil": [0, 694.462084800005], "startTime": 694.4830283999909, "postSpotPupil": [0, 695.4731203999836], "missed": true}
{"trialID": {"id": 82, "triggers": [129, 211], "duration": 0.02}, "hemifield": "right", "block": 5, "sequence_number": 83, "delay": 5.60679809567171, "tones": [{"toneNumber": 100, "time": 697.7712857000006, "prePupil": [0, 697.7582413000055], "postPupil": [0, 697.821357000008]}, {"toneNumber": 101, "time": 700.8223173999868, "prePupil": [0, 700.8102533000056], "postPupil": [0, 700.872372199985]}], "extrakeypresses": [], "coordinates": [5.771230057396801, -4.445134572639815], "preSpotPupil": [0, 701.6075155999861], "startTime": 701.6305516999855, "postSpotPupil": [0, 702.1536791999824], "rt": 0.4861384999821894, "response_key": "2", "late": true}
{"trialID": {"id": 83, "triggers": [129, 212], "duration": 0.02}, "hemifield": "right", "block": 5, "sequence_number": 84, "delay": 3.77341820111001, "tones": [{"toneNumber": 102, "time": 705.3250770999875, "prePupil": [0, 705.3119149999984], "postPupil": [0, 705.3751358999871]}], "extrakeypresses": [], "coordinates": [9.369759229763918, -7.770550473761781], "preSpotPupil": [0, 706.993155300006], "startTime": 707.013698099996, "postSpotPupil": [0, 707.5688179999997], "rt": 0.5152128000045195, "response_key": "2", "late": true}
{"trialID": {"id": 84, "triggers": [129, 213], "duration": 0.02}, "hemifield": "right", "block": 5, "sequence_number": 85, "delay": 7.4209166086403595, "tones": [{"toneNumber": 103, "time": 711.9514750000089, "prePupil": [0, 711.9391227999877], "postPupil": [0, 712.0015338000085]}], "extrakeypresses": [], "coordinates": [5.0459384584399105, -8.566091065455222], "preSpotPupil": [0, 716.035435800004], "startTime": 716.0624725999951, "postSpotPupil": [0, 716.7666514999873], "rt": 0.668231099989498, "response_key": "2", "late": true}
{"trialID": {"id": 85, "triggers": [129, 214], "duration": 0.02}, "hemifield": "right", "block": 5, "sequence_number": 86, "delay": 5.0997604554622376, "tones": [{"toneNumber": 104, "time": 718.9513236999919, "prePupil": [0, 718.9382724000025], "postPupil": [0, 719.0013999000075]}], "extrakeypresses": [], "coordinates": [13.226240603256146, -1.7240023706821201], "preSpotPupil": [0, 722.9111684999953], "startTime": 722.9259189000004, "postSpotPupil": [0, 723.5151895000017], "rt": 0.5488214000070002, "response_key": "2", "late": true}
{"trialID": {"id": 86, "triggers": [129, 215], "duration": 0.02}, "hemifield": "right", "block": 5, "sequence_number": 87, "delay": 8.422493014178873, "tones": [{"toneNumber": 105, "time": 729.0558481999906, "prePupil": [0, 729.044458999997], "postPupil": [0, 729.1059225999925]}, {"toneNumber": 106, "time": 730.7815489000059, "prePupil": [0, 730.7687839999853], "postPupil": [0, 730.831614499999]}], "extrakeypresses": [], "coordinates": [2.2899869470792487, -2.238002594936888], "preSpotPupil": [0, 732.9806127999909], "startTime": 733.0085069999914, "postSpotPupil": [0, 733.9811109000002], "missed": true}
{"trialID": {"id": 87, "triggers": [129, 216], "duration": 0.02}, "hemifield": "right", "block": 5, "sequence_number": 88, "delay": 9.256125572430722, "tones": [{"toneNumber": 107, "time": 737.8103036999819, "prePupil": [0, 737.7972898999869], "postPupil": [0, 737.8603598999907]}, {"toneNumber": 108, "time": 740.9874284999969, "prePupil": [0, 740.9760003999982], "postPupil": [0, 741.0375084999832]}], "extrakeypresses": [], "coordinates": [3.9171530130922485, 4.410503212654964], "preSpotPupil": [0, 743.7686852999905], "startTime": 743.7866445999825, "postSpotPupil": [0, 744.3432213999913], "rt": 0.5105389000091236, "response_key": "2", "late": true}
{"trialID": {"id": 88, "triggers": [129, 217], "duration": 0.02}, "hemifield": "left", "block": 6, "sequence_number": 89, "delay": 2.485117857128646, "tones": [{"toneNumber": 109, "time": 749.5555516000022, "prePupil": [0, 749.5435918000003], "postPupil": [0, 749.6056681000046]}], "extrakeypresses": [], "coordinates": [-6.0909990280991995, -0.847651654088609], "preSpotPupil": [0, 750.9301977999858], "startTime": 750.9526047999971, "postSpotPupil": [0, 751.4251309999963], "rt": 0.4395100000256207, "response_key": "2"}
{"trialID": {"id": 89, "triggers": [129, 218], "duration": 0.02}, "hemifield": "left", "block": 6, "sequence_number": 90, "delay": 5.044594267855343, "tones": [{"toneNumber": 110, "time": 755.5911071999872, "prePupil": [0, 755.578075700003], "postPupil": [0, 755.6412050999934]}], "extrakeypresses": [], "coordinates": [-11.743130765964523, -0.8379581757121741], "preSpotPupil": [0, 757.5332202999853], "startTime": 757.5516127999872, "postSpotPupil": [0, 758.5420677000075], "missed": true}
{"trialID": {"id": 90, "triggers": [129, 219], "duration": 0.02}, "hemifield": "left", "block": 6, "sequence_number": 91, "delay": 3.9297777843907413, "tones": [{"toneNumber": 111, "time": 761.2950988000084, "prePupil": [0, 761.2833203999908], "postPupil": [0, 761.3452044999867]}], "extrakeypresses": [], "coordinates": [-3.438568987527452, -7.6260497048609], "preSpotPupil": [0, 763.0020704999915], "startTime": 763.0156103000045, "postSpotPupil": [0, 763.7053965000086], "rt": 0.644124299986288, "response_key": "2", "late": true}
{"trialID": {"id": 91, "triggers": [129, 220], "duration": 0.02}, "hemifield": "left", "block": 6, "sequence_number": 92, "delay": 8.365075966724955, "tones": [{"toneNumber": 112, "time": 765.833154699998, "prePupil": [0, 765.8203367999813], "postPupil": [0, 765.8832262000069]}, {"toneNumber": 113, "time": 769.1781285000034, "prePupil": [0, 769.1662287999934], "postPupil": [0, 769.2281959999818]}, {"toneNumber": 114, "time": 771.3702466999821, "prePupil": [0, 771.3576960999926], "postPupil": [0, 771.4203647999966]}], "extrakeypresses": [], "coordinates": [-1.5029968174318604, -2.7811475342139778], "preSpotPupil": [0, 773.1159834999999], "startTime": 773.1307786999969, "postSpotPupil": [0, 773.8028939999931], "rt": 0.6391593999869656, "response_key": "2", "late": true}
{"trialID": {"id": 92, "triggers": [129, 221], "duration": 0.02}, "hemifield": "left", "block": 6, "sequence_number": 93, "delay": 1.8764642783505554, "tones": [], "extrakeypresses": [], "coordinates": [-12.363619344618813, -6.716235088744064], "preSpotPupil": [0, 776.7237166999839], "startTime": 776.7487728999986, "postSpotPupil": [0, 777.5018540000019], "rt": 0.7198145000147633, "response_key": "2", "late": true}
{"trialID": {"id": 93, "triggers": [129, 222], "duration": 0.02}, "hemifield": "left", "block": 6, "sequence_number": 94, "delay": 2.6797040872560336, "tones": [], "extrakeypresses": [], "coordinates": [-11.247759000768278, -4.326809786751602], "preSpotPupil": [0, 781.2272382999945], "startTime": 781.2455763999897, "postSpotPupil": [0, 781.7675062000053], "rt": 0.4841605999972671, "response_key": "2", "late": true}
{"trialID": {"id": 94, "triggers": [129, 223], "duration": 0.02}, "hemifield": "left", "block": 6, "sequence_number": 95, "delay": 7.633767691262538, "tones": [{"toneNumber": 115, "time": 784.6214933999872, "prePupil": [0, 784.6096322000085], "postPupil": [0, 784.6716193000029]}, {"toneNumber": 116, "time": 786.8347151000053, "prePupil": [0, 786.8220664999972], "postPupil": [0, 786.8847909999895]}], "extrakeypresses": [788.3894213000021], "coordinates": [-3.544127640070389, 1.0371762784580518], "preSpotPupil": [0, 790.4659888999886], "startTime": 790.493767100008, "postSpotPupil": [0, 791.4672774999926], "missed": true}
{"trialID": {"id": 95, "triggers": [129, 224], "duration": 0.02}, "hemifield": "left", "block": 6, "sequence_number": 96, "delay": 2.1106259034464623, "tones": [], "extrakeypresses": [], "coordinates": [-3.818990383649682, 4.1244808877183186], "preSpotPupil": [0, 794.1084609999962], "startTime": 794.1248870999843, "postSpotPupil": [0, 795.1158600999916], "missed": true}
{"trialID": {"id": 96, "triggers": [129, 225], "duration": 0.02}, "hemifield": "left", "block": 6, "sequence_number": 97, "delay": 1.78224095939962, "tones": [], "extrakeypresses": [], "coordinates": [-13.177935513409954, -4.935658707771052], "preSpotPupil": [0, 797.4272582999838], "startTime": 797.4400927000097, "postSpotPupil": [0, 798.431405499985], "missed": true}
{"trialID": {"id": 97, "triggers": [129, 226], "duration": 0.02}, "hemifield": "left", "block": 6, "sequence_number": 98, "delay": 4.753882626229177, "tones": [{"toneNumber": 117, "time": 800.6862970000075, "prePupil": [0, 800.6746211999853], "postPupil": [0, 800.7363649999897]}], "extrakeypresses": [], "coordinates": [-5.662596416046618, 3.728161722083632], "preSpotPupil": [0, 803.7149552000046], "startTime": 803.7398586999916, "postSpotPupil": [0, 804.16218449999], "rt": 0.38986249998561107, "response_key": "2"}
{"trialID": {"id": 98, "triggers": [129, 227], "duration": 0.02}, "hemifield": "left", "block": 6, "sequence_number": 99, "delay": 3.1783470491665895, "tones": [{"toneNumber": 118, "time": 806.8741275999928, "prePupil": [0, 806.8622775999829], "postPupil": [0, 806.9242135999957]}], "extrakeypresses": [], "coordinates": [-5.798115744160349, -0.9268571010863935], "preSpotPupil": [0, 808.4056436000101], "startTime": 808.4216971999849, "postSpotPupil": [0, 808.8942538999836], "rt": 0.4384289000008721, "response_key": "2"}
{"trialID": {"id": 99, "triggers": [129, 228], "duration": 0.02}, "hemifield": "left", "block": 6, "sequence_number": 100, "delay": 1.6922310690237836, "tones": [], "extrakeypresses": [], "coordinates": [-15.663531557021289, -2.920689553993788], "preSpotPupil": [0, 811.649058799987], "startTime": 811.6731895999983, "postSpotPupil": [0, 812.3764641000016], "rt": 0.65752639999846, "response_key": "2", "late": true}
{"trialID": {"id": 100, "triggers": [129, 229], "duration": 0.02}, "hemifield": "left", "block": 6, "sequence_number": 101, "delay": 7.12684930175054, "tones": [{"toneNumber": 119, "time": 816.7706513000012, "prePupil": [0, 816.7578937000071], "postPupil": [0, 816.8207033000072]}], "extrakeypresses": [817.8424261999899], "coordinates": [-10.514419893834182, 5.42105668862915], "preSpotPupil": [0, 820.5522113000043], "startTime": 820.5685261999897, "postSpotPupil": [0, 821.5599213000096], "missed": true}
{"trialID": {"id": 101, "triggers": [129, 230], "duration": 0.02}, "hemifield": "left", "block": 6, "sequence_number": 102, "delay": 7.065803802076999, "tones": [{"toneNumber": 120, "time": 825.6898395000026, "prePupil": [0, 825.6774777999963], "postPupil": [0, 825.7399044999911]}, {"toneNumber": 121, "time": 828.453637300001, "prePupil": [0, 828.441749199992], "postPupil": [0, 828.5037115000014]}], "extrakeypresses": [], "coordinates": [-11.246233254029658, -0.8038193434252756], "preSpotPupil": [0, 829.1566617999924], "startTime": 829.1832537000009, "postSpotPupil": [0, 830.1571211999981], "missed": true}
{"trialID": {"id": 102, "triggers": [129, 231], "duration": 0.02}, "hemifield": "left", "block": 6, "sequence_number": 103, "delay": 8.832971148640805, "tones": [{"toneNumber": 122, "time": 832.1263915000018, "prePupil": [0, 832.1147966999852], "postPupil": [0, 832.1764560999873]}, {"toneNumber": 123, "time": 834.104156699992, "prePupil": [0, 834.0923863000062], "postPupil": [0, 834.1542255000095]}, {"toneNumber": 124, "time": 836.1847023000009, "prePupil": [0, 836.1729545999842], "postPupil": [0, 836.2347843000025]}], "extrakeypresses": [], "coordinates": [-2.1571460761862706, 1.1018743817962289], "preSpotPupil": [0, 839.5205239999923], "startTime": 839.5482597000082, "postSpotPupil": [0, 840.019807100005], "rt": 0.43552999998792075, "response_key": "2"}
{"trialID": {"id": 103, "triggers": [129, 232], "duration": 0.02}, "hemifield": "left", "block": 6, "sequence_number": 104, "delay": 8.32806062241492, "tones": [{"toneNumber": 125, "time": 842.3967598000017, "prePupil": [0, 842.3846959999937], "postPupil": [0, 842.4468342000037]}, {"toneNumber": 126, "time": 847.448438499996, "prePupil": [0, 847.436849699996], "postPupil": [0, 847.4984944000025]}], "extrakeypresses": [], "coordinates": [-7.354650477804631, 2.443923787542472], "preSpotPupil": [0, 849.4148261999944], "startTime": 849.4473343999998, "postSpotPupil": [0, 850.4188225999824], "missed": true}
{"trialID": {"id": 104, "triggers": [129, 233], "duration": 0.02}, "hemifield": "left", "block": 6, "sequence_number": 105, "delay": 7.894503984520192, "tones": [{"toneNumber": 127, "time": 854.5651381000062, "prePupil": [0, 854.5525477000047], "postPupil": [0, 854.6152199000062]}, {"toneNumber": 128, "time": 857.9635606000083, "prePupil": [0, 857.9516925000062], "postPupil": [0, 858.013618500001]}], "extrakeypresses": [], "coordinates": [-5.650443329795895, 5.255510330370509], "preSpotPupil": [0, 858.8411011999997], "startTime": 858.8593402999977, "postSpotPupil": [0, 859.850030200003], "missed": true}
{"trialID": {"id": 105, "triggers": [129, 234], "duration": 0.02}, "hemifield": "left", "block": 6, "sequence_number": 106, "delay": 6.491664322080227, "tones": [{"toneNumber": 129, "time": 863.9010049999924, "prePupil": [0, 863.8880521999963], "postPupil": [0, 863.9510844000033]}], "extrakeypresses": [], "coordinates": [-1.7821831653240636, 4.113480580665499], "preSpotPupil": [0, 866.8717883999925], "startTime": 866.8906219000055, "postSpotPupil": [0, 867.881103599997], "missed": true}
{"trialID": {"id": 106, "triggers": [129, 235], "duration": 0.02}, "hemifield": "left", "block": 6, "sequence_number": 107, "delay": 9.005989972114634, "tones": [{"toneNumber": 130, "time": 870.1426621999999, "prePupil": [0, 870.1307237999863], "postPupil": [0, 870.1927549999964]}, {"toneNumber": 131, "time": 872.5405695000081, "prePupil": [0, 872.5283079000073], "postPupil": [0, 872.5906292999862]}, {"toneNumber": 132, "time": 874.5708069000102, "prePupil": [0, 874.5580250000057], "postPupil": [0, 874.6209311999846]}, {"toneNumber": 133, "time": 876.7867954999965, "prePupil": [0, 876.7745394000085], "postPupil": [0, 876.836871699983]}], "extrakeypresses": [], "coordinates": [-15.432807857469532, 0.6653219210181831], "preSpotPupil": [0, 877.4192805000057], "startTime": 877.4392435000045, "postSpotPupil": [0, 878.0776361000026], "rt": 0.5896357000165153, "response_key": "2", "late": true}
