{"trialID": {"id": 0, "triggers": [192], "duration": 0.01}, "hemifield": "right", "block": 1, "sequence_number": 1, "delay": 1.8077523531302129, "tones": [], "extrakeypresses": [63.9381124000065], "coordinates": [11.107360437636467, -1.6448889504152016], "preSpotPupil": [0, 66.20847130002221], "startTime": 66.23803040001076, "postSpotPupil": [0, 67.10633049998432], "rt": 0.8279686999740079, "response_key": "2", "late": true}
{"trialID": {"id": 1, "triggers": [193], "duration": 0.01}, "hemifield": "right", "block": 1, "sequence_number": 2, "delay": 4.565712716597885, "tones": [{"toneNumber": 0, "time": 70.522444000002, "prePupil": [0, 70.51059349998832], "postPupil": [0, 70.5725113999797]}], "extrakeypresses": [], "coordinates": [2.692030629926829, -8.467102878941168], "preSpotPupil": [0, 72.7055943000014], "startTime": 72.73404000001028, "postSpotPupil": [0, 73.3214020000305], "rt": 0.5409864999819547, "response_key": "2", "late": true}
{"trialID": {"id": 2, "triggers": [194], "duration": 0.01}, "hemifield": "right", "block": 1, "sequence_number": 3, "delay": 2.398945806274887, "tones": [], "extrakeypresses": [], "coordinates": [6.438812270495116, -5.836032518412906], "preSpotPupil": [0, 76.76382049999665], "startTime": 76.78257450001547, "postSpotPupil": [0, 77.22026600001846], "rt": 0.39339569996809587, "response_key": "2"}
{"trialID": {"id": 3, "triggers": [195], "duration": 0.01}, "hemifield": "right", "block": 1, "sequence_number": 4, "delay": 5.220431622892773, "tones": [{"toneNumber": 1, "time": 81.3122924999916, "prePupil": [0, 81.30056010000408], "postPupil": [0, 81.36244629998691]}], "extrakeypresses": [], "coordinates": [8.554116160565098, -5.855602952112476], "preSpotPupil": [0, 83.49066760001006], "startTime": 83.51526690000901, "postSpotPupil": [0, 84.03543330001412], "rt": 0.4859817999531515, "response_key": "2", "late": true}
{"trialID": {"id": 4, "triggers": [196], "duration": 0.01}, "hemifield": "right", "block": 1, "sequence_number": 5, "delay": 5.479990278306197, "tones": [{"toneNumber": 2, "time": 86.23662460001651, "prePupil": [0, 86.22473090002313], "postPupil": [0, 86.28673100000015]}], "extrakeypresses": [], "coordinates": [13.864577147016666, 0.44724777599103405], "preSpotPupil": [0, 90.56454280001344], "startTime": 90.59729880001396, "postSpotPupil": [0, 91.01719639997464], "rt": 0.37891820003278553, "response_key": "2"}
{"trialID": {"id": 5, "triggers": [197], "duration": 0.01}, "hemifield": "right", "block": 1, "sequence_number": 6, "delay": 2.884166421728228, "tones": [], "extrakeypresses": [], "coordinates": [10.678943649575494, -8.210147811138567], "preSpotPupil": [0, 94.9508319000015], "startTime": 94.97779139998602, "postSpotPupil": [0, 95.51585249998607], "rt": 0.49327889998676255, "response_key": "2", "late": true}
{"trialID": {"id": 6, "triggers": [198], "duration": 0.01}, "hemifield": "right", "block": 1, "sequence_number": 7, "delay": 5.507448126759296, "tones": [{"toneNumber": 3, "time": 101.02889580000192, "prePupil": [0, 101.01650109997718], "postPupil": [0, 101.07900149998022]}], "extrakeypresses": [], "coordinates": [15.064086858106684, -5.843610556989105], "preSpotPupil": [0, 102.07327689998783], "startTime": 102.09306749998359, "postSpotPupil": [0, 102.71432470000582], "rt": 0.583259699982591, "response_key": "2", "late": true}
{"trialID": {"id": 7, "triggers": [199], "duration": 0.01}, "hemifield": "right", "block": 1, "sequence_number": 8, "delay": 6.529370937580371, "tones": [{"toneNumber": 4, "time": 107.00310360000003, "prePupil": [0, 106.99085290002404], "postPupil": [0, 107.05318320001243]}, {"toneNumber": 5, "time": 108.73893360001966, "prePupil": [0, 108.72710570000345], "postPupil": [0, 108.78905090002809]}], "extrakeypresses": [], "coordinates": [4.558472481632024, 6.4962858090810744], "preSpotPupil": [0, 110.27655070001492], "startTime": 110.307657700032, "postSpotPupil": [0, 110.97898810001789], "rt": 0.6376221000100486, "response_key": "2", "late": true}
{"trialID": {"id": 8, "triggers": [200], "duration": 0.01}, "hemifield": "right", "block": 1, "sequence_number": 9, "delay": 5.883095886736132, "tones": [{"toneNumber": 6, "time": 114.76257929997519, "prePupil": [0, 114.7505441000103], "postPupil": [0, 114.81264209997607]}, {"toneNumber": 7, "time": 117.31234210002003, "prePupil": [0, 117.29952050000429], "postPupil": [0, 117.36241910001263]}], "extrakeypresses": [], "coordinates": [9.183066201338491, -8.264404260793091], "preSpotPupil": [0, 117.89545090001775], "startTime": 117.92346229997929, "postSpotPupil": [0, 118.69388580002123], "rt": 0.722680400009267, "response_key": "2", "late": true}
{"trialID": {"id": 9, "triggers": [201], "duration": 0.01}, "hemifield": "right", "block": 1, "sequence_number": 10, "delay": 1.7365816141521764, "tones": [], "extrakeypresses": [], "coordinates": [13.529077171104042, -3.746519169892097], "preSpotPupil": [0, 121.46203100000275], "startTime": 121.48948370001744, "postSpotPupil": [0, 122.47772060002899], "missed": true}
{"trialID": {"id": 10, "triggers": [202], "duration": 0.01}, "hemifield": "right", "block": 1, "sequence_number": 11, "delay": 8.89239760277112, "tones": [{"toneNumber": 8, "time": 126.94337659998564, "prePupil": [0, 126.93057989998488], "postPupil": [0, 126.99344739998924]}, {"toneNumber": 9, "time": 129.80453000002308, "prePupil": [0, 129.79313140001614], "postPupil": [0, 129.8546054000035]}], "extrakeypresses": [], "coordinates": [6.230870666822603, 7.574969144775748], "preSpotPupil": [0, 131.89151729998412], "startTime": 131.91826529998798, "postSpotPupil": [0, 132.40701630001422], "rt": 0.45076769997831434, "response_key": "2"}
{"trialID": {"id": 11, "triggers": [203], "duration": 0.01}, "hemifield": "right", "block": 1, "sequence_number": 12, "delay": 5.45971143769565, "tones": [{"toneNumber": 10, "time": 137.6307480999967, "prePupil": [0, 137.61886220000451], "postPupil": [0, 137.6808240999817]}], "extrakeypresses": [], "coordinates": [7.899504467546213, 4.470102838491714], "preSpotPupil": [0, 138.91704109997954], "startTime": 138.95306049997453, "postSpotPupil": [0, 139.45520399999805], "rt": 0.45967559999553487, "response_key": "2", "late": true}
{"trialID": {"id": 12, "triggers": [204], "duration": 0.01}, "hemifield": "right", "block": 1, "sequence_number": 13, "delay": 5.555496898519114, "tones": [{"toneNumber": 11, "time": 143.11406360002002, "prePupil": [0, 143.10267689998727], "postPupil": [0, 143.16413230000762]}], "extrakeypresses": [], "coordinates": [2.093067435479642, -6.7328014650067765], "preSpotPupil": [0, 146.06283810001332], "startTime": 146.08139770000707, "postSpotPupil": [0, 146.53672169998754], "rt": 0.41295460000401363, "response_key": "2"}
{"trialID": {"id": 13, "triggers": [205], "duration": 0.01}, "hemifield": "right", "block": 1, "sequence_number": 14, "delay": 8.10681243785231, "tones": [{"toneNumber": 12, "time": 150.38130990002537, "prePupil": [0, 150.36846969998442], "postPupil": [0, 150.4313809000305]}, {"toneNumber": 13, "time": 155.09241430001566, "prePupil": [0, 155.07962319999933], "postPupil": [0, 155.14250690001063]}], "extrakeypresses": [], "coordinates": [15.87868036471805, 1.3237029259050814], "preSpotPupil": [0, 155.6956239999854], "startTime": 155.7310121000046, "postSpotPupil": [0, 156.21789209998678], "rt": 0.4480250999913551, "response_key": "2"}
{"trialID": {"id": 14, "triggers": [206], "duration": 0.01}, "hemifield": "right", "block": 1, "sequence_number": 15, "delay": 3.1888037156986764, "tones": [{"toneNumber": 14, "time": 159.36983059998602, "prePupil": [0, 159.35768479999388], "postPupil": [0, 159.41994330001762]}], "extrakeypresses": [], "coordinates": [14.64602263260448, -2.171439226643572], "preSpotPupil": [0, 160.45661450002808], "startTime": 160.47793240001192, "postSpotPupil": [0, 160.93393260001903], "rt": 0.4080528999911621, "response_key": "2"}
{"trialID": {"id": 15, "triggers": [207], "duration": 0.01}, "hemifield": "right", "block": 1, "sequence_number": 16, "delay": 5.912529789971672, "tones": [{"toneNumber": 15, "time": 165.79509139998117, "prePupil": [0, 165.78271120000863], "postPupil": [0, 165.8451738000149]}], "extrakeypresses": [], "coordinates": [2.1256139619786163, 8.078197101868783], "preSpotPupil": [0, 167.89583460002905], "startTime": 167.92799420002848, "postSpotPupil": [0, 168.44804370001657], "rt": 0.4801582000218332, "response_key": "2", "late": true}
{"trialID": {"id": 16, "triggers": [208], "duration": 0.01}, "hemifield": "right", "block": 1, "sequence_number": 17, "delay": 2.5125910229800166, "tones": [], "extrakeypresses": [], "coordinates": [7.513017418255534, 4.225943376320284], "preSpotPupil": [0, 172.01168579998193], "startTime": 172.04464899998857, "postSpotPupil": [0, 172.49699990003137], "rt": 0.41740689997095615, "response_key": "2"}
{"trialID": {"id": 17, "triggers": [209], "duration": 0.01}, "hemifield": "right", "block": 1, "sequence_number": 18, "delay": 3.8500560452872215, "tones": [], "extrakeypresses": [], "coordinates": [6.909593667045164, 1.9110440719533361], "preSpotPupil": [0, 177.39641950000077], "startTime": 177.42610370001057, "postSpotPupil": [0, 177.91250229999423], "rt": 0.4489785999758169, "response_key": "2"}
{"trialID": {"id": 18, "triggers": [210], "duration": 0.01}, "hemifield": "right", "block": 1, "sequence_number": 19, "delay": 4.7581578992922235, "tones": [{"toneNumber": 16, "time": 180.46488420001697, "prePupil": [0, 180.4527624999755], "postPupil": [0, 180.51496539998334]}], "extrakeypresses": [], "coordinates": [15.633535476998022, -5.1773566031624485], "preSpotPupil": [0, 183.72316069999943], "startTime": 183.73934339999687, "postSpotPupil": [0, 184.36110879998887], "rt": 0.5777798999915831, "response_key": "2", "late": true}
{"trialID": {"id": 19, "triggers": [211], "duration": 0.01}, "hemifield": "left", "block": 2, "sequence_number": 20, "delay": 2.8713242602468796, "tones": [], "extrakeypresses": [], "coordinates": [-4.945784749440801, -1.615863111827852], "preSpotPupil": [0, 191.32230180001352], "startTime": 191.35508880001726, "postSpotPupil": [0, 191.79269670002395], "rt": 0.3975769999669865, "response_key": "2"}
{"trialID": {"id": 20, "triggers": [212], "duration": 0.01}, "hemifield": "left", "block": 2, "sequence_number": 21, "delay": 1.6646823113475424, "tones": [], "extrakeypresses": [], "coordinates": [-6.816795389213805, -6.189827237089549], "preSpotPupil": [0, 194.50807909999276], "startTime": 194.53842930000974, "postSpotPupil": [0, 195.1082012000261], "rt": 0.5290839000372216, "response_key": "2", "late": true}
{"trialID": {"id": 21, "triggers": [213], "duration": 0.01}, "hemifield": "left", "block": 2, "sequence_number": 22, "delay": 2.8198627259348674, "tones": [], "extrakeypresses": [], "coordinates": [-6.082066090437072, 5.136834230446691], "preSpotPupil": [0, 198.9613688000245], "startTime": 198.9860446000239, "postSpotPupil": [0, 199.35723149997648], "rt": 0.3311187999788672, "response_key": "2"}
{"trialID": {"id": 22, "triggers": [214], "duration": 0.01}, "hemifield": "left", "block": 2, "sequence_number": 23, "delay": 3.226428424877433, "tones": [], "extrakeypresses": [], "coordinates": [-10.722995402789735, 5.2763516151923024], "preSpotPupil": [0, 203.63512749999063], "startTime": 203.6501534000272, "postSpotPupil": [0, 204.10703910002485], "rt": 0.4130841000005603, "response_key": "2"}
{"trialID": {"id": 23, "triggers": [215], "duration": 0.01}, "hemifield": "left", "block": 2, "sequence_number": 24, "delay": 9.40773414157087, "tones": [{"toneNumber": 17, "time": 208.96836950001307, "prePupil": [0, 208.9560353999841], "postPupil": [0, 209.01842849998502]}, {"toneNumber": 18, "time": 212.7592911000247, "prePupil": [0, 212.74679970002035], "postPupil": [0, 212.8093639999861]}], "extrakeypresses": [], "coordinates": [-7.617962280732646, 3.5041893855657023], "preSpotPupil": [0, 214.5685961000272], "startTime": 214.60136959998636, "postSpotPupil": [0, 215.0866251999978], "rt": 0.4466526999603957, "response_key": "2"}
{"trialID": {"id": 24, "triggers": [216], "duration": 0.01}, "hemifield": "left", "block": 2, "sequence_number": 25, "delay": 7.990795067349643, "tones": [{"toneNumber": 19, "time": 219.87030190002406, "prePupil": [0, 219.85852270002943], "postPupil": [0, 219.92038299998967]}, {"toneNumber": 20, "time": 223.00660439999774, "prePupil": [0, 222.99466199998278], "postPupil": [0, 223.05670050001936]}], "extrakeypresses": [], "coordinates": [-15.528051776313706, 7.9844107307871806], "preSpotPupil": [0, 224.12932260002708], "startTime": 224.14573619997827, "postSpotPupil": [0, 225.13657600001898], "missed": true}
{"trialID": {"id": 25, "triggers": [217], "duration": 0.01}, "hemifield": "left", "block": 2, "sequence_number": 26, "delay": 7.104103201396516, "tones": [{"toneNumber": 21, "time": 227.97269989998313, "prePupil": [0, 227.9603145000292], "postPupil": [0, 228.02286349999486]}, {"toneNumber": 22, "time": 230.86181879998185, "prePupil": [0, 230.84920619998593], "postPupil": [0, 230.9118808999774]}], "extrakeypresses": [], "coordinates": [-12.477768460792523, 0.911660022342252], "preSpotPupil": [0, 232.75937320000958], "startTime": 232.7765913999756, "postSpotPupil": [0, 233.3490873000119], "rt": 0.5274709000368603, "response_key": "2", "late": true}
{"trialID": {"id": 26, "triggers": [218], "duration": 0.01}, "hemifield": "left", "block": 2, "sequence_number": 27, "delay": 7.921562235434719, "tones": [{"toneNumber": 23, "time": 238.07846009999048, "prePupil": [0, 238.064924300008], "postPupil": [0, 238.1286030000192]}, {"toneNumber": 24, "time": 240.9396222999785, "prePupil": [0, 240.92642319999868], "postPupil": [0, 240.98974889999954]}], "extrakeypresses": [], "coordinates": [-15.31741861001227, -2.470430961490125], "preSpotPupil": [0, 242.30417560000205], "startTime": 242.32479500002228, "postSpotPupil": [0, 242.91327680001268], "rt": 0.5413000000407919, "response_key": "2", "late": true}
{"trialID": {"id": 27, "triggers": [219], "duration": 0.01}, "hemifield": "left", "block": 2, "sequence_number": 28, "delay": 4.930210722287053, "tones": [{"toneNumber": 25, "time": 247.37639440002386, "prePupil": [0, 247.3645492999931], "postPupil": [0, 247.42649049998727]}], "extrakeypresses": [], "coordinates": [-7.13194500900935, 1.1804872520392742], "preSpotPupil": [0, 248.87690129998373], "startTime": 248.90809510002146, "postSpotPupil": [0, 249.41188229998806], "rt": 0.46703079994767904, "response_key": "2", "late": true}
{"trialID": {"id": 28, "triggers": [220], "duration": 0.01}, "hemifield": "left", "block": 2, "sequence_number": 29, "delay": 4.0270585974390265, "tones": [], "extrakeypresses": [], "coordinates": [-3.2212346758027035, -5.365165713976428], "preSpotPupil": [0, 254.48882359999698], "startTime": 254.5060731000267, "postSpotPupil": [0, 255.17710819997592], "rt": 0.6273280000314116, "response_key": "2", "late": true}
{"trialID": {"id": 29, "triggers": [221], "duration": 0.01}, "hemifield": "left", "block": 2, "sequence_number": 30, "delay": 3.752277259871354, "tones": [{"toneNumber": 26, "time": 259.10649600002216, "prePupil": [0, 259.09466220001923], "postPupil": [0, 259.1566315999953]}], "extrakeypresses": [], "coordinates": [-8.427521575464592, 3.0135686358117475], "preSpotPupil": [0, 259.9628323999932], "startTime": 259.9883451000205, "postSpotPupil": [0, 260.5922771000187], "rt": 0.5606684000231326, "response_key": "2", "late": true}
{"trialID": {"id": 30, "triggers": [222], "duration": 0.01}, "hemifield": "left", "block": 2, "sequence_number": 31, "delay": 7.195929494168068, "tones": [{"toneNumber": 27, "time": 263.15499920002185, "prePupil": [0, 263.14259399997536], "postPupil": [0, 263.2050553000299]}, {"toneNumber": 28, "time": 267.7145646000281, "prePupil": [0, 267.70323250000365], "postPupil": [0, 267.76468469999963]}], "extrakeypresses": [], "coordinates": [-12.756056291552843, -4.014404023646129], "preSpotPupil": [0, 268.8225543000153], "startTime": 268.85403709998354, "postSpotPupil": [0, 269.2567493999959], "rt": 0.3602971999789588, "response_key": "2"}
{"trialID": {"id": 31, "triggers": [223], "duration": 0.01}, "hemifield": "left", "block": 2, "sequence_number": 32, "delay": 9.378344258989149, "tones": [{"toneNumber": 29, "time": 273.56866819999414, "prePupil": [0, 273.55612850002944], "postPupil": [0, 273.61872989998665]}, {"toneNumber": 30, "time": 278.6049735000124, "prePupil": [0, 278.5935740999994], "postPupil": [0, 278.65509880002355]}], "extrakeypresses": [], "coordinates": [-7.204786300926447, 0.3064014609252297], "preSpotPupil": [0, 279.6842938999762], "startTime": 279.71792319999076, "postSpotPupil": [0, 280.17097610002384], "rt": 0.41525199997704476, "response_key": "2"}
{"trialID": {"id": 32, "triggers": [224], "duration": 0.01}, "hemifield": "left", "block": 2, "sequence_number": 33, "delay": 2.189742792043523, "tones": [], "extrakeypresses": [], "coordinates": [-9.796025364083253, -7.487986519663217], "preSpotPupil": [0, 283.4112202000106], "startTime": 283.4312447999837, "postSpotPupil": [0, 283.9533856000053], "rt": 0.4861498000100255, "response_key": "2", "late": true}
{"trialID": {"id": 33, "triggers": [225], "duration": 0.01}, "hemifield": "left", "block": 2, "sequence_number": 34, "delay": 8.37552094236452, "tones": [{"toneNumber": 31, "time": 288.4653177, "prePupil": [0, 288.45249260001583], "postPupil": [0, 288.5153943999903]}, {"toneNumber": 32, "time": 292.8195131000248, "prePupil": [0, 292.80637679999927], "postPupil": [0, 292.86959269997897]}], "extrakeypresses": [292.11707480001496], "coordinates": [-7.224687780149715, -7.168588924262831], "preSpotPupil": [0, 293.38004820002243], "startTime": 293.39615899999626, "postSpotPupil": [0, 294.1008737999946], "rt": 0.6648745000129566, "response_key": "2", "late": true}
{"trialID": {"id": 34, "triggers": [226], "duration": 0.01}, "hemifield": "left", "block": 2, "sequence_number": 35, "delay": 4.571322459046264, "tones": [{"toneNumber": 33, "time": 297.61020100000314, "prePupil": [0, 297.5982960999827], "postPupil": [0, 297.6603019000031]}], "extrakeypresses": [], "coordinates": [-3.1412866511532034, 0.16086738667540423], "preSpotPupil": [0, 299.70598530001007], "startTime": 299.72754009999335, "postSpotPupil": [0, 300.13271660002647], "rt": 0.370658400002867, "response_key": "2"}
{"trialID": {"id": 35, "triggers": [227], "duration": 0.01}, "hemifield": "left", "block": 2, "sequence_number": 36, "delay": 8.890251192625023, "tones": [{"toneNumber": 34, "time": 304.4847830000217, "prePupil": [0, 304.47260129998904], "postPupil": [0, 304.53488420002395]}, {"toneNumber": 35, "time": 307.4746719999821, "prePupil": [0, 307.46289279998746], "postPupil": [0, 307.52473130001454]}], "extrakeypresses": [], "coordinates": [-4.241168623785365, -3.836755046133648], "preSpotPupil": [0, 310.07267219998175], "startTime": 310.0929898999748, "postSpotPupil": [0, 310.59700770000927], "rt": 0.4602938999887556, "response_key": "2"}
{"trialID": {"id": 36, "triggers": [228], "duration": 0.01}, "hemifield": "right", "block": 3, "sequence_number": 37, "delay": 7.665019602648357, "tones": [{"toneNumber": 36, "time": 316.288537800021, "prePupil": [0, 316.2758065999951], "postPupil": [0, 316.33859990001656]}, {"toneNumber": 37, "time": 319.1682804999873, "prePupil": [0, 319.1555957000237], "postPupil": [0, 319.2183528000023]}], "extrakeypresses": [], "coordinates": [3.1372889203776175, -4.4732019507348175], "preSpotPupil": [0, 322.35290459997486], "startTime": 322.37278129998595, "postSpotPupil": [0, 322.7938225999824], "rt": 0.3853402999811806, "response_key": "2"}
{"trialID": {"id": 37, "triggers": [229], "duration": 0.01}, "hemifield": "right", "block": 3, "sequence_number": 38, "delay": 3.620815761703523, "tones": [{"toneNumber": 38, "time": 325.4888765999931, "prePupil": [0, 325.47622160002356], "postPupil": [0, 325.53897829999914]}], "extrakeypresses": [], "coordinates": [12.66784923284617, -7.723155211788356], "preSpotPupil": [0, 327.4638500000001], "startTime": 327.4888808000251, "postSpotPupil": [0, 328.10925300000235], "rt": 0.5881645000190474, "response_key": "2", "late": true}
{"trialID": {"id": 38, "triggers": [230], "duration": 0.01}, "hemifield": "right", "block": 3, "sequence_number": 39, "delay": 3.124463118872856, "tones": [{"toneNumber": 39, "time": 330.24884650000604, "prePupil": [0, 330.2364688999951], "postPupil": [0, 330.29890689998865]}], "extrakeypresses": [], "coordinates": [12.058170613543409, 5.299292291794535], "preSpotPupil": [0, 332.27006539999275], "startTime": 332.3050955000217, "postSpotPupil": [0, 332.79139610001585], "rt": 0.449965100036934, "response_key": "2"}
{"trialID": {"id": 39, "triggers": [231], "duration": 0.01}, "hemifield": "right", "block": 3, "sequence_number": 40, "delay": 8.794050524010029, "tones": [{"toneNumber": 40, "time": 335.7403036999749, "prePupil": [0, 335.7278053999762], "postPupil": [0, 335.7903652000241]}, {"toneNumber": 41, "time": 340.7420843000291, "prePupil": [0, 340.7299503000104], "postPupil": [0, 340.79216220002854]}], "extrakeypresses": [341.53738679998787], "coordinates": [3.2527408822046895, -2.384520339038483], "preSpotPupil": [0, 342.63327829999616], "startTime": 342.6503585000173, "postSpotPupil": [0, 343.15541260002647], "rt": 0.46879270003410056, "response_key": "2"}
{"trialID": {"id": 40, "triggers": [232], "duration": 0.01}, "hemifield": "right", "block": 3, "sequence_number": 41, "delay": 5.875210223100136, "tones": [{"toneNumber": 42, "time": 346.88849139999365, "prePupil": [0, 346.8767384000239], "postPupil": [0, 346.93869849998737]}], "extrakeypresses": [], "coordinates": [2.160381204425329, 1.8790834921072577], "preSpotPupil": [0, 350.0815735000069], "startTime": 350.0984862999758, "postSpotPupil": [0, 350.7037269999855], "rt": 0.5704398000380024, "response_key": "2", "late": true}
{"trialID": {"id": 41, "triggers": [233], "duration": 0.01}, "hemifield": "right", "block": 3, "sequence_number": 42, "delay": 5.7629853231605495, "tones": [{"toneNumber": 43, "time": 354.90986220003106, "prePupil": [0, 354.8980980999768], "postPupil": [0, 354.95993379998254]}], "extrakeypresses": [], "coordinates": [6.134606323918938, -8.099853280555019], "preSpotPupil": [0, 357.50069610000355], "startTime": 357.53039299999364, "postSpotPupil": [0, 358.16837249998935], "rt": 0.6050043000141159, "response_key": "2", "late": true}
{"trialID": {"id": 42, "triggers": [234], "duration": 0.01}, "hemifield": "right", "block": 3, "sequence_number": 43, "delay": 4.676877560188896, "tones": [{"toneNumber": 44, "time": 361.81409180001356, "prePupil": [0, 361.8017271999852], "postPupil": [0, 361.8642185999779]}], "extrakeypresses": [], "coordinates": [6.109701451525874, 6.931307487637982], "preSpotPupil": [0, 363.878524300002], "startTime": 363.89609070000006, "postSpotPupil": [0, 364.5503581999801], "rt": 0.6089596999809146, "response_key": "2", "late": true}
{"trialID": {"id": 43, "triggers": [235], "duration": 0.01}, "hemifield": "right", "block": 3, "sequence_number": 44, "delay": 6.620022733061794, "tones": [{"toneNumber": 45, "time": 368.38916510000126, "prePupil": [0, 368.37608110002475], "postPupil": [0, 368.439285200031]}], "extrakeypresses": [], "coordinates": [1.1309644887187473, 1.6349170870434886], "preSpotPupil": [0, 372.2049645999796], "startTime": 372.2275043000118, "postSpotPupil": [0, 373.2163835000247], "missed": true}
{"trialID": {"id": 44, "triggers": [236], "duration": 0.01}, "hemifield": "right", "block": 3, "sequence_number": 45, "delay": 6.048101946372934, "tones": [{"toneNumber": 46, "time": 377.27516010002, "prePupil": [0, 377.262886099983], "postPupil": [0, 377.3252360000042]}], "extrakeypresses": [], "coordinates": [14.304159862202996, 6.265711490724467], "preSpotPupil": [0, 379.7828366999747], "startTime": 379.80809010000667, "postSpotPupil": [0, 380.7986827000277], "missed": true}
{"trialID": {"id": 45, "triggers": [237], "duration": 0.01}, "hemifield": "right", "block": 3, "sequence_number": 46, "delay": 4.850529742003533, "tones": [{"toneNumber": 47, "time": 383.9245651999954, "prePupil": [0, 383.91204070003005], "postPupil": [0, 383.9746321000275]}], "extrakeypresses": [], "coordinates": [7.331315710027425, 7.294152474815647], "preSpotPupil": [0, 386.1667312000063], "startTime": 386.18915160000324, "postSpotPupil": [0, 386.6947581000277], "rt": 0.46449619997292757, "response_key": "2"}
{"trialID": {"id": 46, "triggers": [238], "duration": 0.01}, "hemifield": "right", "block": 3, "sequence_number": 47, "delay": 5.231445299658555, "tones": [{"toneNumber": 48, "time": 389.87025039998116, "prePupil": [0, 389.8580437999917], "postPupil": [0, 389.92031419998966]}, {"toneNumber": 49, "time": 391.8400738000055, "prePupil": [0, 391.8277514000074], "postPupil": [0, 391.8903343999991]}], "extrakeypresses": [], "coordinates": [10.11651325834036, -8.6250883877729], "preSpotPupil": [0, 392.9772619000287], "startTime": 393.00618159997975, "postSpotPupil": [0, 393.9783577999915], "missed": true}
{"trialID": {"id": 47, "triggers": [239], "duration": 0.01}, "hemifield": "right", "block": 3, "sequence_number": 48, "delay": 2.7927012107210594, "tones": [], "extrakeypresses": [], "coordinates": [12.670542180089381, -6.118139408653887], "preSpotPupil": [0, 397.2894652999821], "startTime": 397.32006679999176, "postSpotPupil": [0, 398.2936593000195], "missed": true}
{"trialID": {"id": 48, "triggers": [240], "duration": 0.01}, "hemifield": "right", "block": 3, "sequence_number": 49, "delay": 3.4054409977149236, "tones": [{"toneNumber": 50, "time": 400.5386737000081, "prePupil": [0, 400.5259043999831], "postPupil": [0, 400.58873890002724]}], "extrakeypresses": [], "coordinates": [4.319107352884594, -3.786391505354703], "preSpotPupil": [0, 402.21709819999523], "startTime": 402.23489339998923, "postSpotPupil": [0, 402.74121040001046], "rt": 0.4653046000166796, "response_key": "2"}
{"trialID": {"id": 49, "triggers": [241], "duration": 0.01}, "hemifield": "right", "block": 3, "sequence_number": 50, "delay": 5.214918816974507, "tones": [{"toneNumber": 51, "time": 406.1057941999752, "prePupil": [0, 406.0937505000038], "postPupil": [0, 406.15588999999454]}, {"toneNumber": 52, "time": 408.3346983999945, "prePupil": [0, 408.3231963000144], "postPupil": [0, 408.38476059999084]}], "extrakeypresses": [], "coordinates": [10.481137921000823, -7.058519462420495], "preSpotPupil": [0, 409.00581040000543], "startTime": 409.03508419997524, "postSpotPupil": [0, 410.0082575000124], "missed": true}
{"trialID": {"id": 50, "triggers": [242], "duration": 0.01}, "hemifield": "right", "block": 3, "sequence_number": 51, "delay": 2.3767428590236532, "tones": [{"toneNumber": 53, "time": 411.64377510000486, "prePupil": [0, 411.6319522000267], "postPupil": [0, 411.69387359998655]}], "extrakeypresses": [], "coordinates": [12.006531892348413, 4.946984154835233], "preSpotPupil": [0, 412.90271200001007], "startTime": 412.93491680000443, "postSpotPupil": [0, 413.9066430000239], "missed": true}
{"trialID": {"id": 51, "triggers": [243], "duration": 0.01}, "hemifield": "right", "block": 3, "sequence_number": 52, "delay": 7.689231106213375, "tones": [{"toneNumber": 54, "time": 416.9824442000245, "prePupil": [0, 416.9706402000156], "postPupil": [0, 417.03252439998323]}, {"toneNumber": 55, "time": 419.48332340002526, "prePupil": [0, 419.4719059999916], "postPupil": [0, 419.533431000018]}, {"toneNumber": 56, "time": 421.2486054999754, "prePupil": [0, 421.23664160002954], "postPupil": [0, 421.29869860003237]}], "extrakeypresses": [], "coordinates": [14.003431780752488, 4.552962987725623], "preSpotPupil": [0, 422.1145446000155], "startTime": 422.12948280002456, "postSpotPupil": [0, 423.12134690000676], "missed": true}
{"trialID": {"id": 52, "triggers": [244], "duration": 0.01}, "hemifield": "right", "block": 3, "sequence_number": 53, "delay": 5.008362963948067, "tones": [{"toneNumber": 57, "time": 424.9686184999882, "prePupil": [0, 424.95639180002036], "postPupil": [0, 425.01869210001314]}], "extrakeypresses": [], "coordinates": [14.412045617601969, -5.31974036086935], "preSpotPupil": [0, 428.64786399999866], "startTime": 428.67879500001436, "postSpotPupil": [0, 429.65334409999195], "missed": true}
{"trialID": {"id": 53, "triggers": [245], "duration": 0.01}, "hemifield": "right", "block": 3, "sequence_number": 54, "delay": 6.109736387483586, "tones": [{"toneNumber": 58, "time": 431.36481800000183, "prePupil": [0, 431.3529959000298], "postPupil": [0, 431.41490169998724]}, {"toneNumber": 59, "time": 435.6334854000015, "prePupil": [0, 435.62171279999893], "postPupil": [0, 435.6835433000233]}], "extrakeypresses": [], "coordinates": [10.564789391403451, -6.79083115239413], "preSpotPupil": [0, 436.2835742000025], "startTime": 436.31116149999434, "postSpotPupil": [0, 436.9160649999976], "rt": 0.5568740999442525, "response_key": "2", "late": true}
{"trialID": {"id": 54, "triggers": [246], "duration": 0.01}, "hemifield": "left", "block": 4, "sequence_number": 55, "delay": 3.8052809189667984, "tones": [{"toneNumber": 60, "time": 442.74325639999006, "prePupil": [0, 442.7312927999883], "postPupil": [0, 442.7933287000051]}], "extrakeypresses": [], "coordinates": [-6.991798615235693, -1.7969219599891533], "preSpotPupil": [0, 444.79607829998713], "startTime": 444.82603850000305, "postSpotPupil": [0, 445.48052939999616], "rt": 0.6099786999984644, "response_key": "2", "late": true}
{"trialID": {"id": 55, "triggers": [247], "duration": 0.01}, "hemifield": "left", "block": 4, "sequence_number": 56, "delay": 1.7291137502776213, "tones": [], "extrakeypresses": [], "coordinates": [-1.4436164698637874, 4.104924037492266], "preSpotPupil": [0, 448.2454267999856], "startTime": 448.2753077999805, "postSpotPupil": [0, 448.9130928000086], "rt": 0.5967345000244677, "response_key": "2", "late": true}
{"trialID": {"id": 56, "triggers": [248], "duration": 0.01}, "hemifield": "left", "block": 4, "sequence_number": 57, "delay": 7.990512237767046, "tones": [{"toneNumber": 61, "time": 451.17654820001917, "prePupil": [0, 451.1646848000237], "postPupil": [0, 451.2266313]}, {"toneNumber": 62, "time": 455.8208518999745, "prePupil": [0, 455.8090433999896], "postPupil": [0, 455.8709309999831]}], "extrakeypresses": [], "coordinates": [-8.167812999748675, 6.770242291705532], "preSpotPupil": [0, 457.93704089999665], "startTime": 457.9561472000205, "postSpotPupil": [0, 458.9454452000209], "missed": true}
{"trialID": {"id": 57, "triggers": [249], "duration": 0.01}, "hemifield": "left", "block": 4, "sequence_number": 58, "delay": 6.100664581931914, "tones": [{"toneNumber": 63, "time": 463.4408147999784, "prePupil": [0, 463.427989799995], "postPupil": [0, 463.49088800000027]}], "extrakeypresses": [], "coordinates": [-15.234076403427636, -5.955907766062674], "preSpotPupil": [0, 465.56592359999195], "startTime": 465.58728019997943, "postSpotPupil": [0, 466.5767244999879], "missed": true}
{"trialID": {"id": 58, "triggers": [250], "duration": 0.01}, "hemifield": "left", "block": 4, "sequence_number": 59, "delay": 2.1456894889061875, "tones": [], "extrakeypresses": [], "coordinates": [-4.31589322099739, -2.069995698364832], "preSpotPupil": [0, 469.23925679997774], "startTime": 469.2690811000066, "postSpotPupil": [0, 470.0244626000058], "rt": 0.7190567000070587, "response_key": "2", "late": true}
{"trialID": {"id": 59, "triggers": [251], "duration": 0.01}, "hemifield": "left", "block": 4, "sequence_number": 60, "delay": 5.236842622925897, "tones": [{"toneNumber": 64, "time": 475.3906381999841, "prePupil": [0, 475.37870350002777], "postPupil": [0, 475.4407134000212]}], "extrakeypresses": [], "coordinates": [-4.181222036116223, -3.6321881160740714], "preSpotPupil": [0, 476.2939566000132], "startTime": 476.31912020000163, "postSpotPupil": [0, 476.8393606999889], "rt": 0.4810867999913171, "response_key": "2", "late": true}
{"trialID": {"id": 60, "triggers": [252], "duration": 0.01}, "hemifield": "left", "block": 4, "sequence_number": 61, "delay": 7.5586314777878165, "tones": [{"toneNumber": 65, "time": 479.06051159999333, "prePupil": [0, 479.04873430001317], "postPupil": [0, 479.1106145000085]}, {"toneNumber": 66, "time": 480.8684341000044, "prePupil": [0, 480.8563000999857], "postPupil": [0, 480.91855539998505]}, {"toneNumber": 67, "time": 482.8725644000224, "prePupil": [0, 482.86043260002043], "postPupil": [0, 482.92263400001684]}], "extrakeypresses": [], "coordinates": [-11.47271584258316, -5.654289636215541], "preSpotPupil": [0, 485.44681430002674], "startTime": 485.4661358000012, "postSpotPupil": [0, 486.25415549997706], "rt": 0.7390079000033438, "response_key": "2", "late": true}
{"trialID": {"id": 61, "triggers": [253], "duration": 0.01}, "hemifield": "left", "block": 4, "sequence_number": 62, "delay": 2.7215790865207694, "tones": [{"toneNumber": 68, "time": 489.0343550000107, "prePupil": [0, 489.02212099998724], "postPupil": [0, 489.0844635000103]}], "extrakeypresses": [], "coordinates": [-12.848047624231114, 4.520794869767954], "preSpotPupil": [0, 490.0073281999794], "startTime": 490.0312936999835, "postSpotPupil": [0, 490.06944230000954], "rt": -0.6701202999684028, "response_key": "2"}
{"trialID": {"id": 62, "triggers": [254], "duration": 0.01}, "hemifield": "left", "block": 4, "sequence_number": 63, "delay": 7.6809164095278994, "tones": [{"toneNumber": 69, "time": 493.01168400002643, "prePupil": [0, 492.9994808000047], "postPupil": [0, 493.06174179998925]}, {"toneNumber": 70, "time": 496.7358251999831, "prePupil": [0, 496.7247458000202], "postPupil": [0, 496.78590720001375]}], "extrakeypresses": [], "coordinates": [-15.662501186039067, 1.378002027969913], "preSpotPupil": [0, 498.9189193000202], "startTime": 498.9470506000216, "postSpotPupil": [0, 499.93650329997763], "missed": true}
{"trialID": {"id": 63, "triggers": [129, 192], "duration": 0.02}, "hemifield": "left", "block": 4, "sequence_number": 64, "delay": 3.2150080178164755, "tones": [{"toneNumber": 71, "time": 502.19359290000284, "prePupil": [0, 502.18125110003166], "postPupil": [0, 502.24366550002014]}], "extrakeypresses": [], "coordinates": [-4.785514096407383, 6.674123501747573], "preSpotPupil": [0, 503.68277970002964], "startTime": 503.71029570000246, "postSpotPupil": [0, 504.68424560001586], "missed": true}
{"trialID": {"id": 64, "triggers": [129, 193], "duration": 0.02}, "hemifield": "left", "block": 4, "sequence_number": 65, "delay": 3.720063981132058, "tones": [{"toneNumber": 72, "time": 506.4668926000013, "prePupil": [0, 506.45483429997694], "postPupil": [0, 506.51696280000033]}], "extrakeypresses": [], "coordinates": [-6.573960752773752, 5.366869927702497], "preSpotPupil": [0, 508.9338444999885], "startTime": 508.95939119998366, "postSpotPupil": [0, 509.94965070002945], "missed": true}
{"trialID": {"id": 65, "triggers": [129, 194], "duration": 0.02}, "hemifield": "left", "block": 4, "sequence_number": 66, "delay": 2.426280139697984, "tones": [], "extrakeypresses": [], "coordinates": [-8.4290536821914, 8.568737306856685], "preSpotPupil": [0, 512.9063711999916], "startTime": 512.9240410000202, "postSpotPupil": [0, 513.9154712000163], "missed": true}
{"trialID": {"id": 66, "triggers": [129, 195], "duration": 0.02}, "hemifield": "left", "block": 4, "sequence_number": 67, "delay": 9.160077394583794, "tones": [{"toneNumber": 73, "time": 517.151034599985, "prePupil": [0, 517.1393455999787], "postPupil": [0, 517.2011609000037]}, {"toneNumber": 74, "time": 519.1641691999976, "prePupil": [0, 519.15285329998], "postPupil": [0, 519.2142246000003]}, {"toneNumber": 75, "time": 521.7724923000205, "prePupil": [0, 521.7607457999839], "postPupil": [0, 521.82257389999]}], "extrakeypresses": [], "coordinates": [-4.959906691045221, 5.866745176748806], "preSpotPupil": [0, 523.6073243999854], "startTime": 523.6226754999952, "postSpotPupil": [0, 524.6127096000127], "missed": true, "alarm": 524.6244787999894}
{"trialID": {"id": 67, "triggers": [129, 196], "duration": 0.02}, "hemifield": "left", "block": 4, "sequence_number": 68, "delay": 8.704149102617338, "tones": [{"toneNumber": 76, "time": 529.0953620999935, "prePupil": [0, 529.0831377999857], "postPupil": [0, 529.1454766999814]}, {"toneNumber": 77, "time": 530.8556439999957, "prePupil": [0, 530.8442444999819], "postPupil": [0, 530.9057366999914]}], "extrakeypresses": [525.9503278000047], "coordinates": [-15.927026252101408, 0.5677654301223818], "preSpotPupil": [0, 533.8585151000298], "startTime": 533.889379100001, "postSpotPupil": [0, 534.8604354999843], "missed": true, "alarm": 534.8723191000172}
{"trialID": {"id": 68, "triggers": [129, 197], "duration": 0.02}, "hemifield": "left", "block": 4, "sequence_number": 69, "delay": 9.030714548439477, "tones": [{"toneNumber": 78, "time": 539.0791560999933, "prePupil": [0, 539.066180600028], "postPupil": [0, 539.1292554999818]}, {"toneNumber": 79, "time": 543.6917208000086, "prePupil": [0, 543.6798470999929], "postPupil": [0, 543.7417947999784]}], "extrakeypresses": [], "coordinates": [-12.413835180108542, 1.9371222184365013], "preSpotPupil": [0, 544.4342855000286], "startTime": 544.4502835000167, "postSpotPupil": [0, 544.8730904000113], "rt": 0.37978410004870966, "response_key": "2"}
{"trialID": {"id": 69, "triggers": [129, 198], "duration": 0.02}, "hemifield": "left", "block": 4, "sequence_number": 70, "delay": 4.025818428627003, "tones": [{"toneNumber": 80, "time": 548.6335722000222, "prePupil": [0, 548.6217692000209], "postPupil": [0, 548.6836430000258]}], "extrakeypresses": [], "coordinates": [-5.462880616308878, 5.5556530064573195], "preSpotPupil": [0, 549.960472900013], "startTime": 549.9838917999878, "postSpotPupil": [0, 550.387742299994], "rt": 0.35815679997904226, "response_key": "2"}
{"trialID": {"id": 70, "triggers": [129, 199], "duration": 0.02}, "hemifield": "left", "block": 4, "sequence_number": 71, "delay": 4.401741348696822, "tones": [{"toneNumber": 81, "time": 552.7631503000157, "prePupil": [0, 552.7515818999964], "postPupil": [0, 552.8132599000237]}], "extrakeypresses": [], "coordinates": [-12.452731942687937, 6.021093204674731], "preSpotPupil": [0, 555.8494280999876], "startTime": 555.8648836999782, "postSpotPupil": [0, 556.3866031999933], "rt": 0.4871946999919601, "response_key": "2", "late": true}
{"trialID": {"id": 71, "triggers": [129, 200], "duration": 0.02}, "hemifield": "left", "block": 4, "sequence_number": 72, "delay": 9.241001217299935, "tones": [{"toneNumber": 82, "time": 560.7139452000265, "prePupil": [0, 560.7025409999769], "postPupil": [0, 560.7640013999771]}, {"toneNumber": 83, "time": 565.7192408000119, "prePupil": [0, 565.7071801000275], "postPupil": [0, 565.7693162999931]}], "extrakeypresses": [], "coordinates": [-13.48676712488717, -3.7335113669828646], "preSpotPupil": [0, 566.6897783000022], "startTime": 566.7130978999776, "postSpotPupil": [0, 567.3172801000183], "rt": 0.5660079999943264, "response_key": "2", "late": true}
{"trialID": {"id": 72, "triggers": [129, 201], "duration": 0.02}, "hemifield": "right", "block": 5, "sequence_number": 73, "delay": 5.840831968183526, "tones": [{"toneNumber": 84, "time": 573.8223532999982, "prePupil": [0, 573.8108833000297], "postPupil": [0, 573.8724222999881]}, {"toneNumber": 85, "time": 575.8911299000029, "prePupil": [0, 575.8783084999886], "postPupil": [0, 575.9411950000213]}], "extrakeypresses": [], "coordinates": [13.260681577138563, 1.7765441690471793], "preSpotPupil": [0, 577.2608897000318], "startTime": 577.2936763999751, "postSpotPupil": [0, 577.8813796000322], "rt": 0.5423454000265338, "response_key": "2", "late": true}
{"trialID": {"id": 73, "triggers": [129, 202], "duration": 0.02}, "hemifield": "right", "block": 5, "sequence_number": 74, "delay": 2.1345187861833796, "tones": [], "extrakeypresses": [], "coordinates": [8.245787877796316, -2.2265844929728864], "preSpotPupil": [0, 581.0590928000165], "startTime": 581.0749394000159, "postSpotPupil": [0, 581.58046810003], "rt": 0.4601103999884799, "response_key": "2"}
{"trialID": {"id": 74, "triggers": [129, 203], "duration": 0.02}, "hemifield": "right", "block": 5, "sequence_number": 75, "delay": 1.5127884737729556, "tones": [], "extrakeypresses": [], "coordinates": [6.5222735543643235, 5.852595472043792], "preSpotPupil": [0, 584.1565438000252], "startTime": 584.1739469000022, "postSpotPupil": [0, 584.6963761000079], "rt": 0.4761385999736376, "response_key": "2", "late": true}
{"trialID": {"id": 75, "triggers": [129, 204], "duration": 0.02}, "hemifield": "right", "block": 5, "sequence_number": 76, "delay": 5.3766185431053675, "tones": [{"toneNumber": 86, "time": 590.0285339999828, "prePupil": [0, 590.0165088999784], "postPupil": [0, 590.0785975999897]}], "extrakeypresses": [], "coordinates": [1.197807472440149, 5.994312037982336], "preSpotPupil": [0, 591.1352432999993], "startTime": 591.1570101000252, "postSpotPupil": [0, 591.7114191000001], "rt": 0.5113530000089668, "response_key": "2", "late": true}
{"trialID": {"id": 76, "triggers": [129, 205], "duration": 0.02}, "hemifield": "right", "block": 5, "sequence_number": 77, "delay": 3.0452963024633792, "tones": [{"toneNumber": 87, "time": 594.3794516000198, "prePupil": [0, 594.3675369999837], "postPupil": [0, 594.4295180999907]}], "extrakeypresses": [], "coordinates": [10.442176523168447, -8.385949403926908], "preSpotPupil": [0, 595.7990746999858], "startTime": 595.8220683999825, "postSpotPupil": [0, 596.7267674999894], "rt": 0.8589549000025727, "response_key": "2", "late": true}
{"trialID": {"id": 77, "triggers": [129, 206], "duration": 0.02}, "hemifield": "right", "block": 5, "sequence_number": 78, "delay": 3.5072251258419636, "tones": [], "extrakeypresses": [], "coordinates": [4.278861889481375, -7.623058063257275], "preSpotPupil": [0, 601.278080500022], "startTime": 601.3049632000038, "postSpotPupil": [0, 601.775761900004], "rt": 0.4302031999686733, "response_key": "2"}
{"trialID": {"id": 78, "triggers": [129, 207], "duration": 0.02}, "hemifield": "right", "block": 5, "sequence_number": 79, "delay": 6.761031505255838, "tones": [{"toneNumber": 88, "time": 605.1367291000206, "prePupil": [0, 605.1236982999835], "postPupil": [0, 605.1868137000129]}], "extrakeypresses": [], "coordinates": [11.50069627583193, 0.12377072620838092], "preSpotPupil": [0, 609.5970258000307], "startTime": 609.619231300021, "postSpotPupil": [0, 610.2236876999959], "rt": 0.5627660999889486, "response_key": "2", "late": true}
{"trialID": {"id": 79, "triggers": [129, 208], "duration": 0.02}, "hemifield": "right", "block": 5, "sequence_number": 80, "delay": 5.869900455943021, "tones": [{"toneNumber": 89, "time": 614.8655768000172, "prePupil": [0, 614.853637400025], "postPupil": [0, 614.9157007000176]}], "extrakeypresses": [], "coordinates": [1.6861084219211384, -0.22201744492907238], "preSpotPupil": [0, 617.1378453000216], "startTime": 617.1680413000286, "postSpotPupil": [0, 617.6219214000157], "rt": 0.41999179997947067, "response_key": "2"}
{"trialID": {"id": 80, "triggers": [129, 209], "duration": 0.02}, "hemifield": "right", "block": 5, "sequence_number": 81, "delay": 2.4642487662875414, "tones": [], "extrakeypresses": [], "coordinates": [3.2847023050419386, -2.379875053030492], "preSpotPupil": [0, 621.1482952000224], "startTime": 621.1663548999932, "postSpotPupil": [0, 621.6372980999877], "rt": 0.4338002000004053, "response_key": "2"}
{"trialID": {"id": 81, "triggers": [129, 210], "duration": 0.02}, "hemifield": "right", "block": 5, "sequence_number": 82, "delay": 8.93410872931894, "tones": [{"toneNumber": 90, "time": 625.1898784000077, "prePupil": [0, 625.1771202000091], "postPupil": [0, 625.2399412000086]}, {"toneNumber": 91, "time": 627.055457599985, "prePupil": [0, 627.0436235999805], "postPupil": [0, 627.1055468000122]}, {"toneNumber": 92, "time": 630.490567300003, "prePupil": [0, 630.4779070999939], "postPupil": [0, 630.5406281999894]}], "extrakeypresses": [], "coordinates": [16.029009495901363, -4.013996067949956], "preSpotPupil": [0, 631.6342452000245], "startTime": 631.6641161000007, "postSpotPupil": [0, 632.6373769000056], "missed": true}
{"trialID": {"id": 82, "triggers": [129, 211], "duration": 0.02}, "hemifield": "right", "block": 5, "sequence_number": 83, "delay": 5.076807908749437, "tones": [{"toneNumber": 93, "time": 637.5548243999947, "prePupil": [0, 637.542188499996], "postPupil": [0, 637.6049007999827]}], "extrakeypresses": [], "coordinates": [2.6718351413836636, -6.572147901693635], "preSpotPupil": [0, 638.2454415999819], "startTime": 638.2787186999922, "postSpotPupil": [0, 638.8164545000182], "rt": 0.5053124999976717, "response_key": "2", "late": true}
{"trialID": {"id": 83, "triggers": [129, 212], "duration": 0.02}, "hemifield": "right", "block": 5, "sequence_number": 84, "delay": 3.962137632747581, "tones": [{"toneNumber": 94, "time": 643.2298568999977, "prePupil": [0, 643.2178516000276], "postPupil": [0, 643.2799207000062]}], "extrakeypresses": [], "coordinates": [4.500144397604823, -6.627452053186307], "preSpotPupil": [0, 643.8243275000132], "startTime": 643.8451204000157, "postSpotPupil": [0, 644.3985052999924], "rt": 0.5098740000394173, "response_key": "2", "late": true}
{"trialID": {"id": 84, "triggers": [129, 213], "duration": 0.02}, "hemifield": "right", "block": 5, "sequence_number": 85, "delay": 6.3183080528036255, "tones": [{"toneNumber": 95, "time": 648.8745967000141, "prePupil": [0, 648.8630228000111], "postPupil": [0, 648.9246600000188]}], "extrakeypresses": [], "coordinates": [10.555806725361975, 7.114055521945058], "preSpotPupil": [0, 651.7646327000111], "startTime": 651.7932182999793, "postSpotPupil": [0, 652.4634995000088], "rt": 0.6308651000144891, "response_key": "2", "late": true}
{"trialID": {"id": 85, "triggers": [129, 214], "duration": 0.02}, "hemifield": "right", "block": 5, "sequence_number": 86, "delay": 4.126583759507237, "tones": [{"toneNumber": 96, "time": 655.7108688000008, "prePupil": [0, 655.6986648000311], "postPupil": [0, 655.7609728000243]}], "extrakeypresses": [], "coordinates": [6.37914370721668, -2.645490482549028], "preSpotPupil": [0, 657.6357761999825], "startTime": 657.6572015000274, "postSpotPupil": [0, 658.1620258999756], "rt": 0.4707774000125937, "response_key": "2"}
{"trialID": {"id": 86, "triggers": [129, 215], "duration": 0.02}, "hemifield": "right", "block": 5, "sequence_number": 87, "delay": 3.2404340247745314, "tones": [], "extrakeypresses": [], "coordinates": [2.6538442143440477, 5.482989040316886], "preSpotPupil": [0, 662.4632302999962], "startTime": 662.4886065000319, "postSpotPupil": [0, 663.1108679000172], "rt": 0.5895035000285134, "response_key": "2", "late": true}
{"trialID": {"id": 87, "triggers": [129, 216], "duration": 0.02}, "hemifield": "right", "block": 5, "sequence_number": 88, "delay": 8.947026481496609, "tones": [{"toneNumber": 97, "time": 666.9355774000287, "prePupil": [0, 666.9243403000291], "postPupil": [0, 666.9856466000201]}, {"toneNumber": 98, "time": 669.9702060000272, "prePupil": [0, 669.9572740999865], "postPupil": [0, 670.0202925999765]}, {"toneNumber": 99, "time": 671.871999200026, "prePupil": [0, 671.860184899997], "postPupil": [0, 671.9220873999875]}], "extrakeypresses": [], "coordinates": [11.316283977545657, 4.287810976209158], "preSpotPupil": [0, 673.1021016000304], "startTime": 673.1191386000137, "postSpotPupil": [0, 673.8413468999788], "rt": 0.6868733000010252, "response_key": "2", "late": true}
{"trialID": {"id": 88, "triggers": [129, 217], "duration": 0.02}, "hemifield": "right", "block": 5, "sequence_number": 89, "delay": 2.6679975039510406, "tones": [], "extrakeypresses": [], "coordinates": [7.965059768048438, 5.354774097004496], "preSpotPupil": [0, 677.5571064000251], "startTime": 677.5865444000228, "postSpotPupil": [0, 678.2236545999767], "rt": 0.5958200999884866, "response_key": "2", "late": true}
{"trialID": {"id": 89, "triggers": [129, 218], "duration": 0.02}, "hemifield": "right", "block": 5, "sequence_number": 90, "delay": 4.823509729201983, "tones": [{"toneNumber": 100, "time": 681.3817157000303, "prePupil": [0, 681.3699105000123], "postPupil": [0, 681.431782700005]}], "extrakeypresses": [], "coordinates": [13.92035300165623, -2.937915611682943], "preSpotPupil": [0, 684.0921250000247], "startTime": 684.1172718000016, "postSpotPupil": [0, 684.6388199999928], "rt": 0.472903799964115, "response_key": "2", "late": true}
{"trialID": {"id": 90, "triggers": [129, 219], "duration": 0.02}, "hemifield": "right", "block": 5, "sequence_number": 91, "delay": 3.5750513482596498, "tones": [], "extrakeypresses": [], "coordinates": [11.282662965641888, -4.9736192751018695], "preSpotPupil": [0, 689.2777936999919], "startTime": 689.2991376999998, "postSpotPupil": [0, 689.9707185000298], "rt": 0.6299251000164077, "response_key": "2", "late": true}
{"trialID": {"id": 91, "triggers": [129, 220], "duration": 0.02}, "hemifield": "right", "block": 5, "sequence_number": 92, "delay": 8.792838074009847, "tones": [{"toneNumber": 101, "time": 695.4166549000074, "prePupil": [0, 695.4046107000322], "postPupil": [0, 695.466779600014]}], "extrakeypresses": [], "coordinates": [14.753958943585497, 8.307836861356376], "preSpotPupil": [0, 699.8091244000243], "startTime": 699.8305317999911, "postSpotPupil": [0, 700.8195091999951], "missed": true}
{"trialID": {"id": 92, "triggers": [129, 221], "duration": 0.02}, "hemifield": "left", "block": 6, "sequence_number": 93, "delay": 8.192578627424357, "tones": [{"toneNumber": 102, "time": 707.7125461000251, "prePupil": [0, 707.700728100026], "postPupil": [0, 707.7626417999854]}, {"toneNumber": 103, "time": 710.4886145999772, "prePupil": [0, 710.4759838000173], "postPupil": [0, 710.5387168999878]}], "extrakeypresses": [], "coordinates": [-4.954553617791062, -5.953115626443678], "preSpotPupil": [0, 712.596299100027], "startTime": 712.6284335000091, "postSpotPupil": [0, 713.298276400019], "rt": 0.6286485000164248, "response_key": "2", "late": true}
{"trialID": {"id": 93, "triggers": [129, 222], "duration": 0.02}, "hemifield": "left", "block": 6, "sequence_number": 94, "delay": 1.8742897403751178, "tones": [], "extrakeypresses": [], "coordinates": [-12.803969767519124, 7.786163816982496], "preSpotPupil": [0, 716.218189199979], "startTime": 716.2424975000322, "postSpotPupil": [0, 717.2324061000254], "missed": true}
{"trialID": {"id": 94, "triggers": [129, 223], "duration": 0.02}, "hemifield": "left", "block": 6, "sequence_number": 95, "delay": 7.525035173142477, "tones": [{"toneNumber": 104, "time": 719.7088292000117, "prePupil": [0, 719.6953022999805], "postPupil": [0, 719.7588945000316]}, {"toneNumber": 105, "time": 722.7899886000087, "prePupil": [0, 722.7777525000274], "postPupil": [0, 722.8400609000237]}], "extrakeypresses": [], "coordinates": [-10.07212140785845, 8.566169806072155], "preSpotPupil": [0, 725.2880051999819], "startTime": 725.3063427000307, "postSpotPupil": [0, 726.2965864000143], "missed": true}
{"trialID": {"id": 95, "triggers": [129, 224], "duration": 0.02}, "hemifield": "left", "block": 6, "sequence_number": 96, "delay": 4.053283478458796, "tones": [{"toneNumber": 106, "time": 729.5438522999757, "prePupil": [0, 729.5310456000152], "postPupil": [0, 729.5939723000047]}], "extrakeypresses": [], "coordinates": [-6.462344411914675, 4.2388943230759], "preSpotPupil": [0, 730.880825900007], "startTime": 730.904529899999, "postSpotPupil": [0, 731.3274491999764], "rt": 0.37955529999453574, "response_key": "2"}
{"trialID": {"id": 96, "triggers": [129, 225], "duration": 0.02}, "hemifield": "left", "block": 6, "sequence_number": 97, "delay": 4.833708914646094, "tones": [{"toneNumber": 107, "time": 734.242020500009, "prePupil": [0, 734.229293500015], "postPupil": [0, 734.2920800999855]}, {"toneNumber": 108, "time": 736.2103612999781, "prePupil": [0, 736.1982631999999], "postPupil": [0, 736.2604452000232]}], "extrakeypresses": [], "coordinates": [-4.416910848198604, 5.764045243996717], "preSpotPupil": [0, 737.220970000024], "startTime": 737.2375580000225, "postSpotPupil": [0, 738.2273307000287], "missed": true}
{"trialID": {"id": 97, "triggers": [129, 226], "duration": 0.02}, "hemifield": "left", "block": 6, "sequence_number": 98, "delay": 4.6155176550127575, "tones": [], "extrakeypresses": [], "coordinates": [-1.2408231344447653, -4.790351036390957], "preSpotPupil": [0, 743.373010899988], "startTime": 743.4025671000127, "postSpotPupil": [0, 743.8743546999758], "rt": 0.43543839995982125, "response_key": "2"}
{"trialID": {"id": 98, "triggers": [129, 227], "duration": 0.02}, "hemifield": "left", "block": 6, "sequence_number": 99, "delay": 8.546573968868135, "tones": [{"toneNumber": 109, "time": 746.9812125000171, "prePupil": [0, 746.9693188000238], "postPupil": [0, 747.0313165999833]}, {"toneNumber": 110, "time": 751.4623830000055, "prePupil": [0, 751.4502257999848], "postPupil": [0, 751.512455100019]}], "extrakeypresses": [], "coordinates": [-7.8629035751534, -2.484467209732], "preSpotPupil": [0, 753.4821363000083], "startTime": 753.5010870000115, "postSpotPupil": [0, 754.2381482999772], "rt": 0.6931283999583684, "response_key": "2", "late": true}
{"trialID": {"id": 99, "triggers": [129, 228], "duration": 0.02}, "hemifield": "left", "block": 6, "sequence_number": 100, "delay": 7.9096120012001485, "tones": [{"toneNumber": 111, "time": 758.214340800012, "prePupil": [0, 758.2018268000102], "postPupil": [0, 758.2644273000187]}, {"toneNumber": 112, "time": 760.3950122999959, "prePupil": [0, 760.3834359999746], "postPupil": [0, 760.4450964999851]}], "extrakeypresses": [], "coordinates": [-10.375201956982991, -4.861279109238278], "preSpotPupil": [0, 763.1955683000269], "startTime": 763.2142263000133, "postSpotPupil": [0, 763.6694574999856], "rt": 0.42290599999250844, "response_key": "2"}
{"trialID": {"id": 100, "triggers": [129, 229], "duration": 0.02}, "hemifield": "left", "block": 6, "sequence_number": 101, "delay": 4.880701776071881, "tones": [{"toneNumber": 113, "time": 768.724870999984, "prePupil": [0, 768.7122817999916], "postPupil": [0, 768.7749395000283]}], "extrakeypresses": [], "coordinates": [-3.7720605148276025, -4.664587573233613], "preSpotPupil": [0, 769.6120819000062], "startTime": 769.6481781000039, "postSpotPupil": [0, 770.1012459999765], "rt": 0.4115207999711856, "response_key": "2"}
{"trialID": {"id": 101, "triggers": [129, 230], "duration": 0.02}, "hemifield": "left", "block": 6, "sequence_number": 102, "delay": 2.9581629957849085, "tones": [], "extrakeypresses": [], "coordinates": [-4.4467525352975645, -1.7556110167062693], "preSpotPupil": [0, 774.1241698000231], "startTime": 774.1452316999785, "postSpotPupil": [0, 774.8502419000142], "rt": 0.6679164000088349, "response_key": "2", "late": true}
{"trialID": {"id": 102, "triggers": [129, 231], "duration": 0.02}, "hemifield": "left", "block": 6, "sequence_number": 103, "delay": 2.96631091938319, "tones": [], "extrakeypresses": [], "coordinates": [-1.277268785464786, 1.0670258345639265], "preSpotPupil": [0, 778.8631019000313], "startTime": 778.8943106000079, "postSpotPupil": [0, 779.4155866000219], "rt": 0.48174489999655634, "response_key": "2", "late": true}
{"trialID": {"id": 103, "triggers": [129, 232], "duration": 0.02}, "hemifield": "left", "block": 6, "sequence_number": 104, "delay": 7.605496162661305, "tones": [{"toneNumber": 114, "time": 784.596251400013, "prePupil": [0, 784.5838220000151], "postPupil": [0, 784.6463636999833]}], "extrakeypresses": [], "coordinates": [-5.234963480601985, -7.818831410999168], "preSpotPupil": [0, 788.0847249000217], "startTime": 788.1079742999864, "postSpotPupil": [0, 788.6633947999799], "rt": 0.5140923000290059, "response_key": "2", "late": true}
{"trialID": {"id": 104, "triggers": [129, 233], "duration": 0.02}, "hemifield": "left", "block": 6, "sequence_number": 105, "delay": 1.9295229949104566, "tones": [], "extrakeypresses": [], "coordinates": [-15.329608706488708, 0.43533396304541405], "preSpotPupil": [0, 791.6382555000018], "startTime": 791.6579961000243, "postSpotPupil": [0, 792.6476977000129], "missed": true}
{"trialID": {"id": 105, "triggers": [129, 234], "duration": 0.02}, "hemifield": "left", "block": 6, "sequence_number": 106, "delay": 7.241966378503296, "tones": [{"toneNumber": 115, "time": 797.6537914000219, "prePupil": [0, 797.6419567000121], "postPupil": [0, 797.7038622000255]}], "extrakeypresses": [798.5541964999866], "coordinates": [-1.8121068962065507, -3.9252829031364875], "preSpotPupil": [0, 800.4212465999881], "startTime": 800.4380257999874, "postSpotPupil": [0, 800.9604143000324], "rt": 0.4751842999830842, "response_key": "2", "late": true}
{"trialID": {"id": 106, "triggers": [129, 235], "duration": 0.02}, "hemifield": "left", "block": 6, "sequence_number": 107, "delay": 6.6973988222376635, "tones": [{"toneNumber": 116, "time": 805.791495500016, "prePupil": [0, 805.779652199999], "postPupil": [0, 805.8415668000234]}], "extrakeypresses": [], "coordinates": [-2.9197823976666744, -5.917325202383179], "preSpotPupil": [0, 808.7190618999884], "startTime": 808.7361625999911, "postSpotPupil": [0, 809.3080091000302], "rt": 0.52490720001515, "response_key": "2", "late": true}
{"trialID": {"id": 107, "triggers": [129, 236], "duration": 0.02}, "hemifield": "left", "block": 6, "sequence_number": 108, "delay": 4.640359171197784, "tones": [{"toneNumber": 117, "time": 812.5781570000108, "prePupil": [0, 812.5660584000289], "postPupil": [0, 812.6282151999767]}], "extrakeypresses": [], "coordinates": [-8.178242316295231, -1.6921205326027557], "preSpotPupil": [0, 814.9920467999764], "startTime": 815.0183569000219, "postSpotPupil": [0, 815.4902655999758], "rt": 0.43163130001630634, "response_key": "2"}
{"trialID": {"id": 108, "triggers": [129, 237], "duration": 0.02}, "hemifield": "left", "block": 6, "sequence_number": 109, "delay": 6.339842394179689, "tones": [{"toneNumber": 118, "time": 820.3714564000256, "prePupil": [0, 820.3595703999745], "postPupil": [0, 820.4215221999912]}], "extrakeypresses": [821.7680219999747], "coordinates": [-9.467947680174166, 7.751968613551847], "preSpotPupil": [0, 822.8939168999786], "startTime": 822.9180341999745, "postSpotPupil": [0, 823.4546055999817], "rt": 0.49702489998890087, "response_key": "2", "late": true}
