{"trialID": {"id": 0, "triggers": [192], "duration": 0.01}, "hemifield": "left", "block": 1, "sequence_number": 1, "delay": 8.30906455925765, "tones": [{"toneNumber": 0, "time": 66.89066279999679, "prePupil": [0, 66.87837659998331], "postPupil": [0, 66.9407632999937]}, {"toneNumber": 1, "time": 70.27560289995745, "prePupil": [0, 70.26379339996492], "postPupil": [0, 70.3256784999976]}, {"toneNumber": 2, "time": 71.87666279997211, "prePupil": [0, 71.8648992999806], "postPupil": [0, 71.92672649997985]}], "extrakeypresses": [64.3015105999657], "coordinates": [-5.884396342352392, -0.20098944959615572], "preSpotPupil": [0, 73.07165199995507], "startTime": 73.09743549994892, "postSpotPupil": [0, 73.50117099995259], "rt": 0.3573393999831751, "response_key": "2"}
{"trialID": {"id": 1, "triggers": [193], "duration": 0.01}, "hemifield": "left", "block": 1, "sequence_number": 2, "delay": 2.038587526270695, "tones": [], "extrakeypresses": [], "coordinates": [-9.407844476487004, 6.0110288702425585], "preSpotPupil": [0, 76.58673009998165], "startTime": 76.61182619997999, "postSpotPupil": [0, 77.13359679997666], "rt": 0.483837699983269, "response_key": "2", "late": true}
{"trialID": {"id": 2, "triggers": [194], "duration": 0.01}, "hemifield": "left", "block": 1, "sequence_number": 3, "delay": 2.2733552129672283, "tones": [], "extrakeypresses": [], "coordinates": [-12.524769965088455, 0.3781675239692106], "preSpotPupil": [0, 80.45651009998983], "startTime": 80.47714759997325, "postSpotPupil": [0, 81.46718459995463], "missed": true}
{"trialID": {"id": 3, "triggers": [195], "duration": 0.01}, "hemifield": "left", "block": 1, "sequence_number": 4, "delay": 8.21736782007449, "tones": [{"toneNumber": 3, "time": 84.27440189995104, "prePupil": [0, 84.26254839997273], "postPupil": [0, 84.32452109997394]}, {"toneNumber": 4, "time": 86.13499339995906, "prePupil": [0, 86.12275599996792], "postPupil": [0, 86.18506959994556]}], "extrakeypresses": [], "coordinates": [-6.923944761852967, 0.016459584258585735], "preSpotPupil": [0, 90.2034069999936], "startTime": 90.22482559998753, "postSpotPupil": [0, 90.24678899999708], "rt": -0.27085029997397214, "response_key": "2"}
{"trialID": {"id": 4, "triggers": [196], "duration": 0.01}, "hemifield": "left", "block": 1, "sequence_number": 5, "delay": 4.3481137131853735, "tones": [{"toneNumber": 5, "time": 93.15813969995361, "prePupil": [0, 93.14663549995748], "postPupil": [0, 93.2082112999633]}], "extrakeypresses": [], "coordinates": [-14.069419235517355, -6.649332966444659], "preSpotPupil": [0, 95.76339669997105], "startTime": 95.78929779998725, "postSpotPupil": [0, 96.29545629996574], "rt": 0.47257589997025207, "response_key": "2", "late": true}
{"trialID": {"id": 5, "triggers": [197], "duration": 0.01}, "hemifield": "left", "block": 1, "sequence_number": 6, "delay": 2.6363848602602697, "tones": [], "extrakeypresses": [], "coordinates": [-3.8629836483468907, -6.022984550949623], "preSpotPupil": [0, 99.98260249994928], "startTime": 100.00799139996525, "postSpotPupil": [0, 100.74447259999579], "rt": 0.6988971999962814, "response_key": "2", "late": true}
{"trialID": {"id": 6, "triggers": [198], "duration": 0.01}, "hemifield": "left", "block": 1, "sequence_number": 7, "delay": 5.042667340608151, "tones": [{"toneNumber": 6, "time": 103.88442389998818, "prePupil": [0, 103.87216579995584], "postPupil": [0, 103.9344940999872]}], "extrakeypresses": [], "coordinates": [-9.246761757396023, 7.910436981734874], "preSpotPupil": [0, 106.8224782999605], "startTime": 106.85716979997233, "postSpotPupil": [0, 107.6592938999529], "rt": 0.7626245999708772, "response_key": "2", "late": true}
{"trialID": {"id": 7, "triggers": [199], "duration": 0.01}, "hemifield": "left", "block": 1, "sequence_number": 8, "delay": 8.965286286254734, "tones": [{"toneNumber": 7, "time": 109.80838569998741, "prePupil": [0, 109.7965031999629], "postPupil": [0, 109.85845739999786]}, {"toneNumber": 8, "time": 112.40824769996107, "prePupil": [0, 112.39612089999719], "postPupil": [0, 112.45833979995223]}, {"toneNumber": 9, "time": 114.94251119997352, "prePupil": [0, 114.93058599997312], "postPupil": [0, 114.99260639998829]}], "extrakeypresses": [], "coordinates": [-14.285620308559983, -0.2904936815009691], "preSpotPupil": [0, 117.66048709995812], "startTime": 117.68644269998185, "postSpotPupil": [0, 118.15673529997002], "rt": 0.42691469995770603, "response_key": "2"}
{"trialID": {"id": 8, "triggers": [200], "duration": 0.01}, "hemifield": "left", "block": 1, "sequence_number": 9, "delay": 8.20867022899047, "tones": [{"toneNumber": 10, "time": 120.30644519999623, "prePupil": [0, 120.29492609994486], "postPupil": [0, 120.35652939998545]}, {"toneNumber": 11, "time": 123.71837859996594, "prePupil": [0, 123.7065512999543], "postPupil": [0, 123.76848109997809]}], "extrakeypresses": [], "coordinates": [-11.300187506231978, 8.051234953799336], "preSpotPupil": [0, 127.41661209997255], "startTime": 127.43316179997055, "postSpotPupil": [0, 128.42214409995358], "missed": true}
{"trialID": {"id": 9, "triggers": [201], "duration": 0.01}, "hemifield": "left", "block": 1, "sequence_number": 10, "delay": 5.525036560971412, "tones": [{"toneNumber": 12, "time": 132.88526399998227, "prePupil": [0, 132.8728072999511], "postPupil": [0, 132.93534259998705]}], "extrakeypresses": [], "coordinates": [-12.208146459080622, 1.3699221330590543], "preSpotPupil": [0, 134.46288329997333], "startTime": 134.47980400000233, "postSpotPupil": [0, 135.33622549998108], "rt": 0.8231396999908611, "response_key": "2", "late": true}
{"trialID": {"id": 10, "triggers": [202], "duration": 0.01}, "hemifield": "left", "block": 1, "sequence_number": 11, "delay": 1.6997166344618346, "tones": [], "extrakeypresses": [], "coordinates": [-1.5696932854374204, 4.601524181229003], "preSpotPupil": [0, 138.07008829998085], "startTime": 138.09731799998553, "postSpotPupil": [0, 139.08724789996631], "missed": true}
{"trialID": {"id": 11, "triggers": [203], "duration": 0.01}, "hemifield": "left", "block": 1, "sequence_number": 12, "delay": 8.817915664598722, "tones": [{"toneNumber": 13, "time": 143.97271429997636, "prePupil": [0, 143.96011749998434], "postPupil": [0, 144.02282079996075]}, {"toneNumber": 14, "time": 146.38789839996025, "prePupil": [0, 146.37563009996666], "postPupil": [0, 146.43796459998703]}], "extrakeypresses": [], "coordinates": [-6.790849905905633, -1.6406753916465178], "preSpotPupil": [0, 148.4233256999869], "startTime": 148.44423959997948, "postSpotPupil": [0, 148.86613759998], "rt": 0.38361999997869134, "response_key": "2"}
{"trialID": {"id": 12, "triggers": [204], "duration": 0.01}, "hemifield": "left", "block": 1, "sequence_number": 13, "delay": 2.772639066399927, "tones": [], "extrakeypresses": [], "coordinates": [-9.87040685528879, -3.2916607662545765], "preSpotPupil": [0, 152.68689229997108], "startTime": 152.7098026999738, "postSpotPupil": [0, 153.19820279994747], "rt": 0.45604909997200593, "response_key": "2"}
{"trialID": {"id": 13, "triggers": [205], "duration": 0.01}, "hemifield": "left", "block": 1, "sequence_number": 14, "delay": 3.9548830416461316, "tones": [{"toneNumber": 15, "time": 155.77364789997227, "prePupil": [0, 155.76153799996246], "postPupil": [0, 155.8238083999604]}], "extrakeypresses": [], "coordinates": [-3.2232858705786693, 7.761898177286318], "preSpotPupil": [0, 158.20252699998673], "startTime": 158.22681949997786, "postSpotPupil": [0, 158.71380119997775], "rt": 0.4460041999700479, "response_key": "2"}
{"trialID": {"id": 14, "triggers": [206], "duration": 0.01}, "hemifield": "left", "block": 1, "sequence_number": 15, "delay": 4.8568528155172395, "tones": [{"toneNumber": 16, "time": 161.41572199994698, "prePupil": [0, 161.40335679997224], "postPupil": [0, 161.46581199998036]}], "extrakeypresses": [], "coordinates": [-12.163540906638122, -6.933705734080553], "preSpotPupil": [0, 164.62054340000032], "startTime": 164.6398521999945, "postSpotPupil": [0, 165.14545389998239], "rt": 0.46483119996264577, "response_key": "2"}
{"trialID": {"id": 15, "triggers": [207], "duration": 0.01}, "hemifield": "left", "block": 1, "sequence_number": 16, "delay": 8.843332936289467, "tones": [{"toneNumber": 17, "time": 167.48057309997967, "prePupil": [0, 167.46847839996917], "postPupil": [0, 167.53065759997116]}, {"toneNumber": 18, "time": 171.30690470000263, "prePupil": [0, 171.294646299968], "postPupil": [0, 171.35706979996758]}, {"toneNumber": 19, "time": 173.0233445999911, "prePupil": [0, 173.0107492999523], "postPupil": [0, 173.07342119998066]}], "extrakeypresses": [], "coordinates": [-9.306294526787731, 5.580704145507305], "preSpotPupil": [0, 175.0387995999772], "startTime": 175.0542748000007, "postSpotPupil": [0, 176.0445029999828], "missed": true}
{"trialID": {"id": 16, "triggers": [208], "duration": 0.01}, "hemifield": "left", "block": 1, "sequence_number": 17, "delay": 2.1874023916318412, "tones": [], "extrakeypresses": [], "coordinates": [-7.8341269448647335, 5.209644343321049], "preSpotPupil": [0, 178.7509241999942], "startTime": 178.76960639999015, "postSpotPupil": [0, 179.35848799999803], "rt": 0.54408640001202, "response_key": "2", "late": true}
{"trialID": {"id": 17, "triggers": [209], "duration": 0.01}, "hemifield": "left", "block": 1, "sequence_number": 18, "delay": 7.436366110456293, "tones": [{"toneNumber": 20, "time": 182.39101379999192, "prePupil": [0, 182.37825959996553], "postPupil": [0, 182.44111789995804]}, {"toneNumber": 21, "time": 186.76461849996122, "prePupil": [0, 186.75290879997192], "postPupil": [0, 186.81470129999798]}], "extrakeypresses": [], "coordinates": [-11.201644514427844, 7.02173737553343], "preSpotPupil": [0, 187.82769399997778], "startTime": 187.85115199995926, "postSpotPupil": [0, 188.52303059998667], "rt": 0.6305326000438072, "response_key": "2", "late": true}
{"trialID": {"id": 18, "triggers": [210], "duration": 0.01}, "hemifield": "right", "block": 2, "sequence_number": 19, "delay": 2.7081878077357233, "tones": [], "extrakeypresses": [], "coordinates": [2.7155553717043843, -7.06893382172447], "preSpotPupil": [0, 195.32324139995035], "startTime": 195.35006689996226, "postSpotPupil": [0, 196.1376964999945], "rt": 0.7478289999999106, "response_key": "2", "late": true}
{"trialID": {"id": 19, "triggers": [211], "duration": 0.01}, "hemifield": "right", "block": 2, "sequence_number": 20, "delay": 3.646049326623027, "tones": [{"toneNumber": 22, "time": 198.7386550999945, "prePupil": [0, 198.7272299999604], "postPupil": [0, 198.78871819999767]}], "extrakeypresses": [], "coordinates": [3.5703710786343894, -6.688113297690614], "preSpotPupil": [0, 200.8175867999671], "startTime": 200.84820969996508, "postSpotPupil": [0, 201.45329359994503], "rt": 0.5715886999969371, "response_key": "2", "late": true}
{"trialID": {"id": 20, "triggers": [212], "duration": 0.01}, "hemifield": "right", "block": 2, "sequence_number": 21, "delay": 5.032798295588905, "tones": [{"toneNumber": 23, "time": 203.59446969995042, "prePupil": [0, 203.5815556999878], "postPupil": [0, 203.64454099995783]}], "extrakeypresses": [], "coordinates": [9.058724677935501, 2.8844947991666263], "preSpotPupil": [0, 207.52046099997824], "startTime": 207.547887099965, "postSpotPupil": [0, 208.28489979996812], "rt": 0.6909591999719851, "response_key": "2", "late": true}
{"trialID": {"id": 21, "triggers": [213], "duration": 0.01}, "hemifield": "right", "block": 2, "sequence_number": 22, "delay": 7.9847266200756675, "tones": [{"toneNumber": 24, "time": 211.79455659998348, "prePupil": [0, 211.78268379997462], "postPupil": [0, 211.84461809997447]}, {"toneNumber": 25, "time": 216.11777209996944, "prePupil": [0, 216.10642979998374], "postPupil": [0, 216.16787269996712]}], "extrakeypresses": [], "coordinates": [11.032351921798814, 7.745453178761357], "preSpotPupil": [0, 217.30145329999505], "startTime": 217.32842399994843, "postSpotPupil": [0, 218.31765649997396], "missed": true}
{"trialID": {"id": 22, "triggers": [214], "duration": 0.01}, "hemifield": "right", "block": 2, "sequence_number": 23, "delay": 6.530992289013867, "tones": [{"toneNumber": 26, "time": 221.73025439999765, "prePupil": [0, 221.71777629997814], "postPupil": [0, 221.78030749998288]}], "extrakeypresses": [], "coordinates": [6.846733730616739, -1.449846484481177], "preSpotPupil": [0, 225.36699869995937], "startTime": 225.3913553999737, "postSpotPupil": [0, 226.38260969996918], "missed": true}
{"trialID": {"id": 23, "triggers": [215], "duration": 0.01}, "hemifield": "right", "block": 2, "sequence_number": 24, "delay": 3.638273058820327, "tones": [], "extrakeypresses": [], "coordinates": [2.8804225464543585, 0.9044913612586356], "preSpotPupil": [0, 230.53667119995225], "startTime": 230.55705219996162, "postSpotPupil": [0, 231.06250349996844], "rt": 0.4697077000164427, "response_key": "2"}
{"trialID": {"id": 24, "triggers": [216], "duration": 0.01}, "hemifield": "right", "block": 2, "sequence_number": 25, "delay": 1.8432761033349534, "tones": [], "extrakeypresses": [], "coordinates": [7.700541752431544, 8.178304829611976], "preSpotPupil": [0, 233.95676959998673], "startTime": 233.97298309998587, "postSpotPupil": [0, 234.96367139997892], "missed": true}
{"trialID": {"id": 25, "triggers": [217], "duration": 0.01}, "hemifield": "right", "block": 2, "sequence_number": 26, "delay": 4.080957327249166, "tones": [{"toneNumber": 27, "time": 238.41270719998283, "prePupil": [0, 238.4010710999719], "postPupil": [0, 238.46276759996545]}], "extrakeypresses": [], "coordinates": [6.893316094556057, 5.537207560464356], "preSpotPupil": [0, 239.56114369997522], "startTime": 239.58826979994774, "postSpotPupil": [0, 240.07723179995082], "rt": 0.45472189999418333, "response_key": "2"}
{"trialID": {"id": 26, "triggers": [218], "duration": 0.01}, "hemifield": "right", "block": 2, "sequence_number": 27, "delay": 5.144345065919818, "tones": [{"toneNumber": 28, "time": 242.2417320999666, "prePupil": [0, 242.22860129998298], "postPupil": [0, 242.29185899998993]}, {"toneNumber": 29, "time": 244.23241089994553, "prePupil": [0, 244.22091429994907], "postPupil": [0, 244.28247340000235]}], "extrakeypresses": [], "coordinates": [3.6351321731090467, 6.5998295627656365], "preSpotPupil": [0, 246.26989519997733], "startTime": 246.30509749997873, "postSpotPupil": [0, 247.27748910000082], "missed": true}
{"trialID": {"id": 27, "triggers": [219], "duration": 0.01}, "hemifield": "right", "block": 2, "sequence_number": 28, "delay": 1.8007382231181541, "tones": [], "extrakeypresses": [], "coordinates": [8.281949718327663, 3.82923185751706], "preSpotPupil": [0, 249.59740439994493], "startTime": 249.61897369998042, "postSpotPupil": [0, 250.10804749996169], "rt": 0.45604929997352883, "response_key": "2"}
{"trialID": {"id": 28, "triggers": [220], "duration": 0.01}, "hemifield": "right", "block": 2, "sequence_number": 29, "delay": 3.5532132437508164, "tones": [], "extrakeypresses": [], "coordinates": [9.177336710386896, -7.643375042074857], "preSpotPupil": [0, 254.7081610999885], "startTime": 254.73517299996456, "postSpotPupil": [0, 255.5563836999936], "rt": 0.7736162000219338, "response_key": "2", "late": true}
{"trialID": {"id": 29, "triggers": [221], "duration": 0.01}, "hemifield": "right", "block": 2, "sequence_number": 30, "delay": 2.452592594615786, "tones": [], "extrakeypresses": [], "coordinates": [9.854172193155998, 5.897395133594095], "preSpotPupil": [0, 259.04523659998085], "startTime": 259.06754679995356, "postSpotPupil": [0, 260.0571732999524], "missed": true}
{"trialID": {"id": 30, "triggers": [222], "duration": 0.01}, "hemifield": "right", "block": 2, "sequence_number": 31, "delay": 5.691139201655974, "tones": [{"toneNumber": 30, "time": 264.9219359999988, "prePupil": [0, 264.9096475999686], "postPupil": [0, 264.97201420000056]}], "extrakeypresses": [261.2572300999891], "coordinates": [5.399425387359184, 1.0807335262320414], "preSpotPupil": [0, 266.26509399997303], "startTime": 266.2823730999953, "postSpotPupil": [0, 266.7539571999805], "rt": 0.43778100004419684, "response_key": "2"}
{"trialID": {"id": 31, "triggers": [223], "duration": 0.01}, "hemifield": "right", "block": 2, "sequence_number": 32, "delay": 9.302134234805788, "tones": [{"toneNumber": 31, "time": 268.92400749999797, "prePupil": [0, 268.9115347999614], "postPupil": [0, 268.9740773999947]}, {"toneNumber": 32, "time": 271.79495179996593, "prePupil": [0, 271.7828449999797], "postPupil": [0, 271.8450860999874]}, {"toneNumber": 33, "time": 274.10285159997875, "prePupil": [0, 274.0910152999568], "postPupil": [0, 274.15292549994774]}], "extrakeypresses": [274.7665173999849, 275.07415579998633], "coordinates": [6.882731181787477, 4.986827429228816], "preSpotPupil": [0, 277.10615579999285], "startTime": 277.1298327999539, "postSpotPupil": [0, 277.93442069995217], "rt": 0.7689684000215493, "response_key": "2", "late": true}
{"trialID": {"id": 32, "triggers": [224], "duration": 0.01}, "hemifield": "right", "block": 2, "sequence_number": 33, "delay": 9.276218975425548, "tones": [{"toneNumber": 34, "time": 282.0203855999862, "prePupil": [0, 282.00729290000163], "postPupil": [0, 282.07044609996956]}, {"toneNumber": 35, "time": 286.74452959996415, "prePupil": [0, 286.73224299994763], "postPupil": [0, 286.7946328999824]}], "extrakeypresses": [], "coordinates": [3.680423530190388, 3.740854728675494], "preSpotPupil": [0, 288.24542009999277], "startTime": 288.2785748000024, "postSpotPupil": [0, 288.76523749995977], "rt": 0.45150279998779297, "response_key": "2"}
{"trialID": {"id": 33, "triggers": [225], "duration": 0.01}, "hemifield": "right", "block": 2, "sequence_number": 34, "delay": 5.678635781398515, "tones": [{"toneNumber": 36, "time": 293.28226849995553, "prePupil": [0, 293.269819499983], "postPupil": [0, 293.33244149998063]}], "extrakeypresses": [], "coordinates": [16.05428880156638, 7.245970193436577], "preSpotPupil": [0, 295.49533759994665], "startTime": 295.5263220999623, "postSpotPupil": [0, 296.49823359999573], "missed": true}
{"trialID": {"id": 34, "triggers": [226], "duration": 0.01}, "hemifield": "right", "block": 2, "sequence_number": 35, "delay": 9.224210990198458, "tones": [{"toneNumber": 37, "time": 301.46069649996934, "prePupil": [0, 301.4482109999517], "postPupil": [0, 301.5108402999467]}, {"toneNumber": 38, "time": 304.07527419994585, "prePupil": [0, 304.0623501999653], "postPupil": [0, 304.12535399995977]}], "extrakeypresses": [], "coordinates": [8.329475950949139, 3.12736731739089], "preSpotPupil": [0, 306.24088179995306], "startTime": 306.25464969995664, "postSpotPupil": [0, 306.9105561999604], "rt": 0.6122306000324897, "response_key": "2", "late": true}
{"trialID": {"id": 35, "triggers": [227], "duration": 0.01}, "hemifield": "right", "block": 2, "sequence_number": 36, "delay": 8.983376857239197, "tones": [{"toneNumber": 39, "time": 309.0628029999789, "prePupil": [0, 309.05106309999246], "postPupil": [0, 309.11290409998037]}, {"toneNumber": 40, "time": 311.2723461999558, "prePupil": [0, 311.26052429998526], "postPupil": [0, 311.32243859994924]}, {"toneNumber": 41, "time": 314.5167809999548, "prePupil": [0, 314.5053240999696], "postPupil": [0, 314.5668406999903]}], "extrakeypresses": [], "coordinates": [9.13877436183353, -6.5365914639563645], "preSpotPupil": [0, 316.9277159999474], "startTime": 316.9533130999771, "postSpotPupil": [0, 317.408232799964], "rt": 0.41680389997782186, "response_key": "2"}
{"trialID": {"id": 36, "triggers": [228], "duration": 0.01}, "hemifield": "left", "block": 3, "sequence_number": 37, "delay": 2.6589023489547055, "tones": [], "extrakeypresses": [321.0119019999984], "coordinates": [-9.058680511737982, -4.066766398026977], "preSpotPupil": [0, 324.1584307999583], "startTime": 324.1847528999788, "postSpotPupil": [0, 324.85664269997505], "rt": 0.6335099999560043, "response_key": "2", "late": true}
{"trialID": {"id": 37, "triggers": [229], "duration": 0.01}, "hemifield": "left", "block": 3, "sequence_number": 38, "delay": 9.028449396581681, "tones": [{"toneNumber": 42, "time": 328.21867969998857, "prePupil": [0, 328.2068518999731], "postPupil": [0, 328.2688065999537]}, {"toneNumber": 43, "time": 331.3815025999793, "prePupil": [0, 331.36965539999073], "postPupil": [0, 331.4315826999955]}, {"toneNumber": 44, "time": 333.0630112999934, "prePupil": [0, 333.0504953999771], "postPupil": [0, 333.1131231999607]}], "extrakeypresses": [], "coordinates": [-13.439129523727868, 2.87434987310359], "preSpotPupil": [0, 334.920906299958], "startTime": 334.9491565999924, "postSpotPupil": [0, 335.9215306999977], "missed": true}
{"trialID": {"id": 38, "triggers": [230], "duration": 0.01}, "hemifield": "left", "block": 3, "sequence_number": 39, "delay": 6.55878727909442, "tones": [{"toneNumber": 45, "time": 338.2103993999772, "prePupil": [0, 338.1978420999949], "postPupil": [0, 338.2604749999591]}, {"toneNumber": 46, "time": 341.98055989999557, "prePupil": [0, 341.9687318999786], "postPupil": [0, 342.030675099988]}], "extrakeypresses": [], "coordinates": [-13.754622172013834, -5.793596975377968], "preSpotPupil": [0, 342.9965681999456], "startTime": 343.01205729995854, "postSpotPupil": [0, 343.7849086999777], "rt": 0.730037400033325, "response_key": "2", "late": true}
{"trialID": {"id": 39, "triggers": [231], "duration": 0.01}, "hemifield": "left", "block": 3, "sequence_number": 40, "delay": 5.346611593459434, "tones": [{"toneNumber": 47, "time": 347.8861763999448, "prePupil": [0, 347.87416989996564], "postPupil": [0, 347.9363178999629]}], "extrakeypresses": [], "coordinates": [-4.154897433723889, 7.973831700484302], "preSpotPupil": [0, 350.16261169995414], "startTime": 350.19556569994893, "postSpotPupil": [0, 351.16857919999165], "missed": true}
{"trialID": {"id": 40, "triggers": [232], "duration": 0.01}, "hemifield": "left", "block": 3, "sequence_number": 41, "delay": 9.017676675064592, "tones": [{"toneNumber": 48, "time": 354.95668679999653, "prePupil": [0, 354.9447091999464], "postPupil": [0, 355.0067498999997]}, {"toneNumber": 49, "time": 357.8613210999756, "prePupil": [0, 357.84982449997915], "postPupil": [0, 357.91137699998217]}], "extrakeypresses": [357.7172560999752], "coordinates": [-9.877420511391069, -3.317326821160327], "preSpotPupil": [0, 360.70566709997365], "startTime": 360.7254344999674, "postSpotPupil": [0, 361.1142065000022], "rt": 0.3412510000052862, "response_key": "2"}
{"trialID": {"id": 41, "triggers": [233], "duration": 0.01}, "hemifield": "left", "block": 3, "sequence_number": 42, "delay": 2.744253789382187, "tones": [{"toneNumber": 50, "time": 364.09154959995067, "prePupil": [0, 364.07849639997585], "postPupil": [0, 364.14165479998337]}], "extrakeypresses": [], "coordinates": [-7.382476241572721, 7.476813944831191], "preSpotPupil": [0, 364.90931859996635], "startTime": 364.92455579998204, "postSpotPupil": [0, 365.91468619997613], "missed": true}
{"trialID": {"id": 42, "triggers": [234], "duration": 0.01}, "hemifield": "left", "block": 3, "sequence_number": 43, "delay": 9.299103610219396, "tones": [{"toneNumber": 51, "time": 369.67425079998793, "prePupil": [0, 369.6616090000025], "postPupil": [0, 369.72432179999305]}, {"toneNumber": 52, "time": 374.15656219999073, "prePupil": [0, 374.1449387999601], "postPupil": [0, 374.206684099976]}], "extrakeypresses": [], "coordinates": [-15.909483735570713, -7.096084011287139], "preSpotPupil": [0, 375.7334826999577], "startTime": 375.75498159998097, "postSpotPupil": [0, 376.74599239998497], "missed": true}
{"trialID": {"id": 43, "triggers": [235], "duration": 0.01}, "hemifield": "left", "block": 3, "sequence_number": 44, "delay": 4.720751746155534, "tones": [{"toneNumber": 53, "time": 380.45841139997356, "prePupil": [0, 380.4464193999884], "postPupil": [0, 380.5085294999881]}], "extrakeypresses": [], "coordinates": [-11.646672373608594, 3.3326968688407455], "preSpotPupil": [0, 381.9854473999585], "startTime": 382.002769899962, "postSpotPupil": [0, 382.99425999994855], "missed": true}
{"trialID": {"id": 44, "triggers": [236], "duration": 0.01}, "hemifield": "left", "block": 3, "sequence_number": 45, "delay": 6.052005744938259, "tones": [{"toneNumber": 54, "time": 384.5412753999699, "prePupil": [0, 384.52948409999954], "postPupil": [0, 384.59135789994616]}, {"toneNumber": 55, "time": 388.9976056999876, "prePupil": [0, 388.9857512000017], "postPupil": [0, 389.0476772999973]}], "extrakeypresses": [], "coordinates": [-9.074778371128064, -0.8148647070053388], "preSpotPupil": [0, 389.5688465999556], "startTime": 389.5845969999791, "postSpotPupil": [0, 390.10700540000107], "rt": 0.47515269997529685, "response_key": "2", "late": true}
{"trialID": {"id": 45, "triggers": [237], "duration": 0.01}, "hemifield": "left", "block": 3, "sequence_number": 46, "delay": 5.661530466388341, "tones": [{"toneNumber": 56, "time": 393.3716936999699, "prePupil": [0, 393.3586429999559], "postPupil": [0, 393.42175899998983]}, {"toneNumber": 57, "time": 395.7988404999487, "prePupil": [0, 395.7864711000002], "postPupil": [0, 395.84898229996907]}], "extrakeypresses": [], "coordinates": [-13.668722006269412, -0.9303798862119397], "preSpotPupil": [0, 396.81850279995706], "startTime": 396.8513464999851, "postSpotPupil": [0, 397.8232906999765], "missed": true}
{"trialID": {"id": 46, "triggers": [238], "duration": 0.01}, "hemifield": "left", "block": 3, "sequence_number": 47, "delay": 3.1857645151064116, "tones": [{"toneNumber": 58, "time": 399.5537314999965, "prePupil": [0, 399.5415084999986], "postPupil": [0, 399.603805199964]}], "extrakeypresses": [], "coordinates": [-4.9728243463960755, 4.155709650862768], "preSpotPupil": [0, 401.52704219997395], "startTime": 401.54901249997783, "postSpotPupil": [0, 402.10402799997246], "rt": 0.5210041999816895, "response_key": "2", "late": true}
{"trialID": {"id": 47, "triggers": [239], "duration": 0.01}, "hemifield": "left", "block": 3, "sequence_number": 48, "delay": 4.263372649231262, "tones": [{"toneNumber": 59, "time": 405.48024169995915, "prePupil": [0, 405.46716899995226], "postPupil": [0, 405.5303301999811]}], "extrakeypresses": [], "coordinates": [-2.9636703259748973, 3.961581276799702], "preSpotPupil": [0, 407.3995036999695], "startTime": 407.43256799998926, "postSpotPupil": [0, 408.4041689999867], "missed": true}
{"trialID": {"id": 48, "triggers": [240], "duration": 0.01}, "hemifield": "left", "block": 3, "sequence_number": 49, "delay": 7.692800083772546, "tones": [{"toneNumber": 60, "time": 412.8762964999769, "prePupil": [0, 412.8647404999938], "postPupil": [0, 412.9263843999943]}], "extrakeypresses": [409.24028859997634], "coordinates": [-1.9691776724162118, 3.2462682467400636], "preSpotPupil": [0, 416.6146663999534], "startTime": 416.64612439996563, "postSpotPupil": [0, 417.6191395999631], "missed": true}
{"trialID": {"id": 49, "triggers": [241], "duration": 0.01}, "hemifield": "left", "block": 3, "sequence_number": 50, "delay": 4.826984836639372, "tones": [{"toneNumber": 61, "time": 420.8930474999943, "prePupil": [0, 420.88129549997393], "postPupil": [0, 420.9431411999976]}], "extrakeypresses": [], "coordinates": [-15.17068932485225, 3.684207078336005], "preSpotPupil": [0, 422.96396679995814], "startTime": 422.9927842999459, "postSpotPupil": [0, 423.5986991999671], "rt": 0.5590202999883331, "response_key": "2", "late": true}
{"trialID": {"id": 50, "triggers": [242], "duration": 0.01}, "hemifield": "left", "block": 3, "sequence_number": 51, "delay": 6.080534582093696, "tones": [{"toneNumber": 62, "time": 426.2245684999507, "prePupil": [0, 426.2127047999529], "postPupil": [0, 426.27467849996174]}], "extrakeypresses": [], "coordinates": [-8.95244118950204, 5.163076674568359], "preSpotPupil": [0, 430.71352199994726], "startTime": 430.7437654999667, "postSpotPupil": [0, 431.2635381], "rt": 0.48796140000922605, "response_key": "2", "late": true}
{"trialID": {"id": 51, "triggers": [243], "duration": 0.01}, "hemifield": "left", "block": 3, "sequence_number": 52, "delay": 2.451801806883174, "tones": [], "extrakeypresses": [], "coordinates": [-9.426227209089355, -7.615327022659384], "preSpotPupil": [0, 434.7684600999928], "startTime": 434.790866299998, "postSpotPupil": [0, 435.7804784999462], "missed": true}
{"trialID": {"id": 52, "triggers": [244], "duration": 0.01}, "hemifield": "left", "block": 3, "sequence_number": 53, "delay": 7.555163813278632, "tones": [{"toneNumber": 63, "time": 440.7570437999675, "prePupil": [0, 440.7455338999862], "postPupil": [0, 440.80710799997905]}], "extrakeypresses": [440.39566509996075], "coordinates": [-1.5058109527616228, -6.8683420176852295], "preSpotPupil": [0, 443.851849699975], "startTime": 443.8720134999603, "postSpotPupil": [0, 444.8625215999782], "missed": true}
{"trialID": {"id": 53, "triggers": [245], "duration": 0.01}, "hemifield": "right", "block": 4, "sequence_number": 54, "delay": 6.130949736560672, "tones": [{"toneNumber": 64, "time": 452.7889305999852, "prePupil": [0, 452.77654829999665], "postPupil": [0, 452.83901209995383]}], "extrakeypresses": [447.94935650000116], "coordinates": [12.410781009532421, -5.056843294701077], "preSpotPupil": [0, 454.5669256999972], "startTime": 454.5880651999614, "postSpotPupil": [0, 455.5763541999622], "missed": true}
{"trialID": {"id": 54, "triggers": [246], "duration": 0.01}, "hemifield": "right", "block": 4, "sequence_number": 55, "delay": 4.411593006376432, "tones": [{"toneNumber": 65, "time": 458.7537863999605, "prePupil": [0, 458.74157519999426], "postPupil": [0, 458.8038993999944]}], "extrakeypresses": [], "coordinates": [13.535417457186089, 0.6613843305799669], "preSpotPupil": [0, 460.5069387999829], "startTime": 460.534331999952, "postSpotPupil": [0, 461.508214499976], "missed": true}
{"trialID": {"id": 55, "triggers": [247], "duration": 0.01}, "hemifield": "right", "block": 4, "sequence_number": 56, "delay": 3.692042172594178, "tones": [{"toneNumber": 66, "time": 463.62473409995437, "prePupil": [0, 463.6126088000019], "postPupil": [0, 463.67481939995196]}], "extrakeypresses": [], "coordinates": [11.546327255521673, 1.014269064080695], "preSpotPupil": [0, 465.718422899954], "startTime": 465.73354539996944, "postSpotPupil": [0, 465.7552019999712], "rt": -0.3136126000317745, "response_key": "2"}
{"trialID": {"id": 56, "triggers": [248], "duration": 0.01}, "hemifield": "right", "block": 4, "sequence_number": 57, "delay": 7.6896341823831875, "tones": [{"toneNumber": 67, "time": 468.78197859996, "prePupil": [0, 468.7689353999449], "postPupil": [0, 468.83205569995334]}, {"toneNumber": 68, "time": 470.7116380999796, "prePupil": [0, 470.6990329999826], "postPupil": [0, 470.7617965999525]}, {"toneNumber": 69, "time": 473.25589179998497, "prePupil": [0, 473.24375470000086], "postPupil": [0, 473.3059815999586]}], "extrakeypresses": [], "coordinates": [8.756400990039236, 4.989663386498847], "preSpotPupil": [0, 474.61158489994705], "startTime": 474.6312848999514, "postSpotPupil": [0, 475.62133159994846], "missed": true}
{"trialID": {"id": 57, "triggers": [249], "duration": 0.01}, "hemifield": "right", "block": 4, "sequence_number": 58, "delay": 7.748902391342984, "tones": [{"toneNumber": 70, "time": 479.371914999967, "prePupil": [0, 479.3585381999728], "postPupil": [0, 479.4219758999534]}, {"toneNumber": 71, "time": 481.39002849999815, "prePupil": [0, 481.3779142999556], "postPupil": [0, 481.4401079999516]}], "extrakeypresses": [], "coordinates": [8.821110954325487, 0.7269942213739728], "preSpotPupil": [0, 483.88962589995936], "startTime": 483.91241189994616, "postSpotPupil": [0, 484.9023644999834], "missed": true}
{"trialID": {"id": 58, "triggers": [250], "duration": 0.01}, "hemifield": "right", "block": 4, "sequence_number": 59, "delay": 8.428245591612185, "tones": [{"toneNumber": 72, "time": 487.23876129998825, "prePupil": [0, 487.2267534999992], "postPupil": [0, 487.288868899981]}, {"toneNumber": 73, "time": 490.3955366999726, "prePupil": [0, 490.3835585999768], "postPupil": [0, 490.445605899964]}], "extrakeypresses": [], "coordinates": [9.716492305211359, -2.449694178318211], "preSpotPupil": [0, 493.84696399996756], "startTime": 493.87518049997743, "postSpotPupil": [0, 494.8498328999849], "missed": true}
{"trialID": {"id": 59, "triggers": [251], "duration": 0.01}, "hemifield": "right", "block": 4, "sequence_number": 60, "delay": 2.0161840138259786, "tones": [], "extrakeypresses": [], "coordinates": [10.941961168530543, -7.349005152886585], "preSpotPupil": [0, 497.38517480000155], "startTime": 497.40870749996975, "postSpotPupil": [0, 498.39861379994545], "missed": true}
{"trialID": {"id": 60, "triggers": [252], "duration": 0.01}, "hemifield": "right", "block": 4, "sequence_number": 61, "delay": 4.443479820211965, "tones": [{"toneNumber": 74, "time": 502.2003320999793, "prePupil": [0, 502.1880947999889], "postPupil": [0, 502.25042649998795]}], "extrakeypresses": [499.6891560999793], "coordinates": [12.667775768006567, 0.2166034643765844], "preSpotPupil": [0, 503.35821159998886], "startTime": 503.3737181999604, "postSpotPupil": [0, 504.36471939994954], "missed": true, "alarm": 504.3768671999569}
{"trialID": {"id": 61, "triggers": [253], "duration": 0.01}, "hemifield": "right", "block": 4, "sequence_number": 62, "delay": 7.0740251283907964, "tones": [{"toneNumber": 75, "time": 508.3910102999653, "prePupil": [0, 508.3784898999729], "postPupil": [0, 508.4410840999917]}], "extrakeypresses": [], "coordinates": [11.339138367830483, 5.790990166895911], "preSpotPupil": [0, 511.9672193999868], "startTime": 511.9879872999736, "postSpotPupil": [0, 512.3774202999775], "rt": 0.3537986999726854, "response_key": "2"}
{"trialID": {"id": 62, "triggers": [254], "duration": 0.01}, "hemifield": "right", "block": 4, "sequence_number": 63, "delay": 4.900045502130374, "tones": [{"toneNumber": 76, "time": 515.9874310999876, "prePupil": [0, 515.9758553999709], "postPupil": [0, 516.0375958999502]}], "extrakeypresses": [], "coordinates": [5.5865516361552325, 0.2901540346118008], "preSpotPupil": [0, 518.3279175999924], "startTime": 518.3539568999549, "postSpotPupil": [0, 518.8089078999474], "rt": 0.407833400007803, "response_key": "2"}
{"trialID": {"id": 63, "triggers": [129, 192], "duration": 0.02}, "hemifield": "right", "block": 4, "sequence_number": 64, "delay": 6.388052941651246, "tones": [{"toneNumber": 77, "time": 522.0423608999699, "prePupil": [0, 522.0302623999887], "postPupil": [0, 522.0924499999965]}], "extrakeypresses": [], "coordinates": [8.258096625740766, -5.237269363737478], "preSpotPupil": [0, 526.2605685999733], "startTime": 526.2863316999865, "postSpotPupil": [0, 527.2753022999968], "missed": true}
{"trialID": {"id": 64, "triggers": [129, 193], "duration": 0.02}, "hemifield": "right", "block": 4, "sequence_number": 65, "delay": 4.429545229851379, "tones": [{"toneNumber": 78, "time": 529.4354197999928, "prePupil": [0, 529.4235449999687], "postPupil": [0, 529.485505699995]}, {"toneNumber": 79, "time": 531.6639615999884, "prePupil": [0, 531.6519610999967], "postPupil": [0, 531.7140346999513]}], "extrakeypresses": [], "coordinates": [4.3517598370334944, 3.221711720765157], "preSpotPupil": [0, 532.2330445999978], "startTime": 532.2489572999766, "postSpotPupil": [0, 532.7221286999993], "rt": 0.43975269998190925, "response_key": "2"}
{"trialID": {"id": 65, "triggers": [129, 194], "duration": 0.02}, "hemifield": "right", "block": 4, "sequence_number": 66, "delay": 3.9292566372857127, "tones": [{"toneNumber": 80, "time": 535.6775967999711, "prePupil": [0, 535.6657225999516], "postPupil": [0, 535.7277531999862]}], "extrakeypresses": [], "coordinates": [2.7745527146175464, -0.18269026074197114], "preSpotPupil": [0, 537.7121108999709], "startTime": 537.7337929999921, "postSpotPupil": [0, 538.7226954999496], "missed": true}
{"trialID": {"id": 66, "triggers": [129, 195], "duration": 0.02}, "hemifield": "right", "block": 4, "sequence_number": 67, "delay": 5.432563027889706, "tones": [{"toneNumber": 81, "time": 542.1027837999864, "prePupil": [0, 542.0901268000016], "postPupil": [0, 542.1528477999964]}], "extrakeypresses": [], "coordinates": [3.0347311599130142, -7.180142592860599], "preSpotPupil": [0, 544.6853859999683], "startTime": 544.7143076999928, "postSpotPupil": [0, 545.1358967999695], "rt": 0.37861099996371195, "response_key": "2"}
{"trialID": {"id": 67, "triggers": [129, 196], "duration": 0.02}, "hemifield": "right", "block": 4, "sequence_number": 68, "delay": 4.998782400972296, "tones": [{"toneNumber": 82, "time": 550.2365788999596, "prePupil": [0, 550.2232937999652], "postPupil": [0, 550.2866363999783]}], "extrakeypresses": [], "coordinates": [13.709406977496696, 4.612610302837046], "preSpotPupil": [0, 551.1968118999503], "startTime": 551.2119713999564, "postSpotPupil": [0, 552.202312199981], "missed": true}
{"trialID": {"id": 68, "triggers": [129, 197], "duration": 0.02}, "hemifield": "right", "block": 4, "sequence_number": 69, "delay": 5.441323328632867, "tones": [{"toneNumber": 83, "time": 555.5646045999601, "prePupil": [0, 555.5524098000024], "postPupil": [0, 555.6146722999983]}, {"toneNumber": 84, "time": 557.2271503999946, "prePupil": [0, 557.215294900001], "postPupil": [0, 557.2772306999541]}], "extrakeypresses": [], "coordinates": [13.863813803049755, 0.41009244812760137], "preSpotPupil": [0, 558.1738180999528], "startTime": 558.1932706999942, "postSpotPupil": [0, 558.2159787999699], "rt": -0.20937569998204708, "response_key": "2"}
{"trialID": {"id": 69, "triggers": [129, 198], "duration": 0.02}, "hemifield": "right", "block": 4, "sequence_number": 70, "delay": 3.0708193656811247, "tones": [], "extrakeypresses": [], "coordinates": [5.559632042118158, 8.200495308939802], "preSpotPupil": [0, 562.4666082999902], "startTime": 562.493878899957, "postSpotPupil": [0, 563.4832970999996], "missed": true}
{"trialID": {"id": 70, "triggers": [129, 199], "duration": 0.02}, "hemifield": "right", "block": 4, "sequence_number": 71, "delay": 4.655414984763706, "tones": [{"toneNumber": 85, "time": 565.8686528999824, "prePupil": [0, 565.8567233999493], "postPupil": [0, 565.9187437999644]}], "extrakeypresses": [], "coordinates": [13.388896555594867, -7.521408751373117], "preSpotPupil": [0, 568.6667766999453], "startTime": 568.6905391999753, "postSpotPupil": [0, 569.6815958999796], "missed": true}
{"trialID": {"id": 71, "triggers": [129, 200], "duration": 0.02}, "hemifield": "left", "block": 5, "sequence_number": 72, "delay": 6.346300244825541, "tones": [{"toneNumber": 86, "time": 575.5447947999928, "prePupil": [0, 575.5328167999978], "postPupil": [0, 575.5949067999609]}], "extrakeypresses": [], "coordinates": [-3.8321176726916093, -0.7635345696049303], "preSpotPupil": [0, 579.613215899968], "startTime": 579.6395180999534, "postSpotPupil": [0, 580.0607873999979], "rt": 0.3741611000150442, "response_key": "2"}
{"trialID": {"id": 72, "triggers": [129, 201], "duration": 0.02}, "hemifield": "left", "block": 5, "sequence_number": 73, "delay": 5.669787275419752, "tones": [{"toneNumber": 87, "time": 585.38668159995, "prePupil": [0, 585.3745044999523], "postPupil": [0, 585.4367533999612]}], "extrakeypresses": [], "coordinates": [-4.289437102490574, -2.0547625325714804], "preSpotPupil": [0, 586.7977777999477], "startTime": 586.8210778999492, "postSpotPupil": [0, 587.5591046999907], "rt": 0.7019167999969795, "response_key": "2", "late": true}
{"trialID": {"id": 73, "triggers": [129, 202], "duration": 0.02}, "hemifield": "left", "block": 5, "sequence_number": 74, "delay": 1.9271956647024782, "tones": [], "extrakeypresses": [], "coordinates": [-9.456236723136833, -6.119916699530739], "preSpotPupil": [0, 590.5329847999965], "startTime": 590.5530430999934, "postSpotPupil": [0, 591.1078615000006], "rt": 0.520851599983871, "response_key": "2", "late": true}
{"trialID": {"id": 74, "triggers": [129, 203], "duration": 0.02}, "hemifield": "left", "block": 5, "sequence_number": 75, "delay": 3.8107798280888687, "tones": [], "extrakeypresses": [], "coordinates": [-4.310707244423988, -4.108278375779498], "preSpotPupil": [0, 595.9644816999789], "startTime": 595.9856035999837, "postSpotPupil": [0, 596.9744113999768], "missed": true}
{"trialID": {"id": 75, "triggers": [129, 204], "duration": 0.02}, "hemifield": "left", "block": 5, "sequence_number": 76, "delay": 3.1589687341842723, "tones": [{"toneNumber": 88, "time": 599.5098469999502, "prePupil": [0, 599.497104399954], "postPupil": [0, 599.5599580999697]}], "extrakeypresses": [], "coordinates": [-14.816565903622369, -4.770311767317609], "preSpotPupil": [0, 600.6610925999703], "startTime": 600.6834295999724, "postSpotPupil": [0, 601.4886208999669], "rt": 0.7654197000083514, "response_key": "2", "late": true}
{"trialID": {"id": 76, "triggers": [129, 205], "duration": 0.02}, "hemifield": "left", "block": 5, "sequence_number": 77, "delay": 5.687841142591482, "tones": [{"toneNumber": 89, "time": 605.4455491999979, "prePupil": [0, 605.4326702999533], "postPupil": [0, 605.4956214999547]}], "extrakeypresses": [], "coordinates": [-11.126553506104575, -0.12728327855467647], "preSpotPupil": [0, 608.2213042999501], "startTime": 608.2502687999513, "postSpotPupil": [0, 609.2217885999708], "missed": true}
{"trialID": {"id": 77, "triggers": [129, 206], "duration": 0.02}, "hemifield": "left", "block": 5, "sequence_number": 78, "delay": 6.520705339941738, "tones": [{"toneNumber": 90, "time": 611.8438427999499, "prePupil": [0, 611.8335194999818], "postPupil": [0, 611.893888599996]}], "extrakeypresses": [], "coordinates": [-4.981670310397627, -7.5701639486017305], "preSpotPupil": [0, 616.2721551999566], "startTime": 616.2953335999628, "postSpotPupil": [0, 617.286292099976], "missed": true}
{"trialID": {"id": 78, "triggers": [129, 207], "duration": 0.02}, "hemifield": "left", "block": 5, "sequence_number": 79, "delay": 5.061169873893276, "tones": [{"toneNumber": 91, "time": 618.858741199947, "prePupil": [0, 618.8466728999629], "postPupil": [0, 618.9088232999784]}, {"toneNumber": 92, "time": 620.6546751999995, "prePupil": [0, 620.6427628999809], "postPupil": [0, 620.7047576999757]}], "extrakeypresses": [620.171275199973], "coordinates": [-1.9429280665578617, -7.398169674347079], "preSpotPupil": [0, 622.874670899997], "startTime": 622.8953180999961, "postSpotPupil": [0, 623.8850978999981], "missed": true}
{"trialID": {"id": 79, "triggers": [129, 208], "duration": 0.02}, "hemifield": "left", "block": 5, "sequence_number": 80, "delay": 4.790614510619394, "tones": [{"toneNumber": 93, "time": 625.608210699982, "prePupil": [0, 625.5968526999932], "postPupil": [0, 625.6582773999544]}], "extrakeypresses": [], "coordinates": [-1.4480717904164475, -1.3523240624248167], "preSpotPupil": [0, 629.2037358999951], "startTime": 629.2270179999759, "postSpotPupil": [0, 629.9817137999926], "rt": 0.7138764999690466, "response_key": "2", "late": true}
{"trialID": {"id": 80, "triggers": [129, 209], "duration": 0.02}, "hemifield": "left", "block": 5, "sequence_number": 81, "delay": 3.567579193601701, "tones": [{"toneNumber": 94, "time": 633.4304939999711, "prePupil": [0, 633.4184354000026], "postPupil": [0, 633.4805721999728]}], "extrakeypresses": [], "coordinates": [-13.896415698648191, 7.963491242585908], "preSpotPupil": [0, 634.5945789999678], "startTime": 634.6263440999901, "postSpotPupil": [0, 635.5992146999924], "missed": true}
{"trialID": {"id": 81, "triggers": [129, 210], "duration": 0.02}, "hemifield": "left", "block": 5, "sequence_number": 82, "delay": 9.18940506450561, "tones": [{"toneNumber": 95, "time": 639.9155037999735, "prePupil": [0, 639.9042234999943], "postPupil": [0, 639.9655706999474]}, {"toneNumber": 96, "time": 641.5855037999572, "prePupil": [0, 641.5736811999814], "postPupil": [0, 641.6355875000008]}], "extrakeypresses": [], "coordinates": [-14.292839068430435, -2.001723196534277], "preSpotPupil": [0, 645.3159216999775], "startTime": 645.3400217999588, "postSpotPupil": [0, 645.8277672999538], "rt": 0.4407116000074893, "response_key": "2"}
{"trialID": {"id": 82, "triggers": [129, 211], "duration": 0.02}, "hemifield": "left", "block": 5, "sequence_number": 83, "delay": 7.7653425035231525, "tones": [{"toneNumber": 97, "time": 649.0554588999948, "prePupil": [0, 649.0421475999756], "postPupil": [0, 649.1055320999585]}, {"toneNumber": 98, "time": 651.0618747999542, "prePupil": [0, 651.0503943999647], "postPupil": [0, 651.1119461999624]}], "extrakeypresses": [], "coordinates": [-1.109227979445949, -4.099198966150837], "preSpotPupil": [0, 654.6560260999831], "startTime": 654.6890225999523, "postSpotPupil": [0, 655.6601543999859], "missed": true}
{"trialID": {"id": 83, "triggers": [129, 212], "duration": 0.02}, "hemifield": "left", "block": 5, "sequence_number": 84, "delay": 4.430727546114738, "tones": [{"toneNumber": 99, "time": 657.4487056999933, "prePupil": [0, 657.4365257999743], "postPupil": [0, 657.4988340999698]}, {"toneNumber": 100, "time": 659.5836135999998, "prePupil": [0, 659.5710005000001], "postPupil": [0, 659.6337021999643]}], "extrakeypresses": [], "coordinates": [-13.267792601683068, -2.2388481902778263], "preSpotPupil": [0, 660.6187759999884], "startTime": 660.6345440999721, "postSpotPupil": [0, 661.6254369999515], "missed": true}
{"trialID": {"id": 84, "triggers": [129, 213], "duration": 0.02}, "hemifield": "left", "block": 5, "sequence_number": 85, "delay": 5.09115957926445, "tones": [{"toneNumber": 101, "time": 663.7336202999577, "prePupil": [0, 663.7218181999633], "postPupil": [0, 663.7836868999875]}, {"toneNumber": 102, "time": 665.9103867999511, "prePupil": [0, 665.8983543999493], "postPupil": [0, 665.9604911999777]}], "extrakeypresses": [], "coordinates": [-7.407388320406238, -2.3243643846569295], "preSpotPupil": [0, 667.2439336999669], "startTime": 667.2672500999761, "postSpotPupil": [0, 667.6891223999555], "rt": 0.3823570000240579, "response_key": "2"}
{"trialID": {"id": 85, "triggers": [129, 214], "duration": 0.02}, "hemifield": "left", "block": 5, "sequence_number": 86, "delay": 3.213406987519339, "tones": [], "extrakeypresses": [], "coordinates": [-2.8008646826590233, -5.957952997038301], "preSpotPupil": [0, 671.9676423999481], "startTime": 671.982273499947, "postSpotPupil": [0, 672.4714113999507], "rt": 0.45554350002203137, "response_key": "2"}
{"trialID": {"id": 86, "triggers": [129, 215], "duration": 0.02}, "hemifield": "left", "block": 5, "sequence_number": 87, "delay": 1.593384388841259, "tones": [], "extrakeypresses": [], "coordinates": [-4.396962186149828, 8.218798624599229], "preSpotPupil": [0, 675.1287893999834], "startTime": 675.1481843999936, "postSpotPupil": [0, 676.1392642999999], "missed": true}
{"trialID": {"id": 87, "triggers": [129, 216], "duration": 0.02}, "hemifield": "left", "block": 5, "sequence_number": 88, "delay": 4.560318174769911, "tones": [{"toneNumber": 103, "time": 678.7024527999456, "prePupil": [0, 678.6897164999973], "postPupil": [0, 678.7525242999545]}], "extrakeypresses": [], "coordinates": [-11.764401245972838, 5.242242242077589], "preSpotPupil": [0, 681.2309066999587], "startTime": 681.2468886999995, "postSpotPupil": [0, 682.2374240999925], "missed": true}
{"trialID": {"id": 88, "triggers": [129, 217], "duration": 0.02}, "hemifield": "left", "block": 5, "sequence_number": 89, "delay": 3.4454970397937448, "tones": [{"toneNumber": 104, "time": 684.1839584999834, "prePupil": [0, 684.1710650000023], "postPupil": [0, 684.2340261999634]}], "extrakeypresses": [685.4023746999446], "coordinates": [-8.6558330001671, 2.5593650552707103], "preSpotPupil": [0, 686.2092467999901], "startTime": 686.2305305999471, "postSpotPupil": [0, 687.2195860999636], "missed": true}
{"trialID": {"id": 89, "triggers": [129, 218], "duration": 0.02}, "hemifield": "left", "block": 5, "sequence_number": 90, "delay": 9.396918905757193, "tones": [{"toneNumber": 105, "time": 692.0002657999867, "prePupil": [0, 691.9881690999609], "postPupil": [0, 692.0503700999543]}, {"toneNumber": 106, "time": 694.5055711999885, "prePupil": [0, 694.4927804999752], "postPupil": [0, 694.5556737000006]}], "extrakeypresses": [], "coordinates": [-9.82823120710604, -2.116381485792312], "preSpotPupil": [0, 697.1439765999676], "startTime": 697.1592373999883, "postSpotPupil": [0, 698.1504079999868], "missed": true}
{"trialID": {"id": 90, "triggers": [129, 219], "duration": 0.02}, "hemifield": "right", "block": 6, "sequence_number": 91, "delay": 8.153336678349504, "tones": [{"toneNumber": 107, "time": 702.7758318999549, "prePupil": [0, 702.7643705999944], "postPupil": [0, 702.8259623999475]}, {"toneNumber": 108, "time": 705.7143138999818, "prePupil": [0, 705.7024411999737], "postPupil": [0, 705.7643820999656]}], "extrakeypresses": [], "coordinates": [4.2607705028989695, -5.232545514431839], "preSpotPupil": [0, 709.8877969999448], "startTime": 709.90790749999, "postSpotPupil": [0, 710.4452347999904], "rt": 0.5019947000546381, "response_key": "2", "late": true}
{"trialID": {"id": 91, "triggers": [129, 220], "duration": 0.02}, "hemifield": "right", "block": 6, "sequence_number": 92, "delay": 9.247312938061997, "tones": [{"toneNumber": 109, "time": 715.9852048999746, "prePupil": [0, 715.9727994999848], "postPupil": [0, 716.035276199982]}], "extrakeypresses": [], "coordinates": [9.37186190221861, -6.087792413207595], "preSpotPupil": [0, 720.7376558999531], "startTime": 720.7549003000022, "postSpotPupil": [0, 721.744403699995], "missed": true}
{"trialID": {"id": 92, "triggers": [129, 221], "duration": 0.02}, "hemifield": "right", "block": 6, "sequence_number": 93, "delay": 2.8198579132940784, "tones": [], "extrakeypresses": [], "coordinates": [3.9816069275758488, 1.2999693868520819], "preSpotPupil": [0, 725.0929817999713], "startTime": 725.1196424999507, "postSpotPupil": [0, 726.110043499968], "missed": true}
{"trialID": {"id": 93, "triggers": [129, 222], "duration": 0.02}, "hemifield": "right", "block": 6, "sequence_number": 94, "delay": 4.907146321702946, "tones": [{"toneNumber": 110, "time": 729.6670857999707, "prePupil": [0, 729.65530449996], "postPupil": [0, 729.7172021999722]}], "extrakeypresses": [], "coordinates": [7.108067570204883, 2.9794890790443134], "preSpotPupil": [0, 731.5450082999887], "startTime": 731.5673218999873, "postSpotPupil": [0, 732.5580884999945], "missed": true}
{"trialID": {"id": 94, "triggers": [129, 223], "duration": 0.02}, "hemifield": "right", "block": 6, "sequence_number": 95, "delay": 2.2971488285715935, "tones": [], "extrakeypresses": [], "coordinates": [2.3621518574167597, -5.223943834381038], "preSpotPupil": [0, 735.3836679999949], "startTime": 735.399806100002, "postSpotPupil": [0, 736.3893449999741], "rt": 0.9493492000037804, "response_key": "2", "late": true}
{"trialID": {"id": 95, "triggers": [129, 224], "duration": 0.02}, "hemifield": "right", "block": 6, "sequence_number": 96, "delay": 5.39603570293483, "tones": [{"toneNumber": 111, "time": 740.3825103999698, "prePupil": [0, 740.3706870999886], "postPupil": [0, 740.4326009999495]}], "extrakeypresses": [], "coordinates": [9.811937973600612, -0.9905075379829293], "preSpotPupil": [0, 742.830015799962], "startTime": 742.850031399983, "postSpotPupil": [0, 743.8390169999911], "missed": true}
{"trialID": {"id": 96, "triggers": [129, 225], "duration": 0.02}, "hemifield": "right", "block": 6, "sequence_number": 97, "delay": 3.7664466926528597, "tones": [{"toneNumber": 112, "time": 746.2641299999668, "prePupil": [0, 746.251892899978], "postPupil": [0, 746.3142044999986]}], "extrakeypresses": [], "coordinates": [14.874592956706637, -6.26838612883744], "preSpotPupil": [0, 748.1329347999999], "startTime": 748.1460395999602, "postSpotPupil": [0, 749.1377683999599], "missed": true}
{"trialID": {"id": 97, "triggers": [129, 226], "duration": 0.02}, "hemifield": "right", "block": 6, "sequence_number": 98, "delay": 4.027731226746099, "tones": [{"toneNumber": 113, "time": 751.3808071999811, "prePupil": [0, 751.3682858999819], "postPupil": [0, 751.4308774999809]}, {"toneNumber": 114, "time": 753.0107404000009, "prePupil": [0, 752.9978507999913], "postPupil": [0, 753.0608082999825]}], "extrakeypresses": [], "coordinates": [14.843177124025667, 3.1494877174186477], "preSpotPupil": [0, 753.6934110999573], "startTime": 753.7120387999457, "postSpotPupil": [0, 754.703314399987], "missed": true}
{"trialID": {"id": 98, "triggers": [129, 227], "duration": 0.02}, "hemifield": "right", "block": 6, "sequence_number": 99, "delay": 7.359838275149173, "tones": [{"toneNumber": 115, "time": 758.6700794999488, "prePupil": [0, 758.6577263999498], "postPupil": [0, 758.7201361999614]}], "extrakeypresses": [], "coordinates": [9.83805484092008, 2.2959433131470153], "preSpotPupil": [0, 762.5928740999661], "startTime": 762.6098282999592, "postSpotPupil": [0, 762.6323784999549], "rt": -6.923919299966656, "response_key": "2"}
{"trialID": {"id": 99, "triggers": [129, 228], "duration": 0.02}, "hemifield": "right", "block": 6, "sequence_number": 100, "delay": 4.602531996381246, "tones": [], "extrakeypresses": [763.3259554999531], "coordinates": [1.5859403050205079, 0.01741887456678981], "preSpotPupil": [0, 768.4129269999685], "startTime": 768.4444510999601, "postSpotPupil": [0, 769.081355399976], "rt": 0.6042806999757886, "response_key": "2", "late": true}
{"trialID": {"id": 100, "triggers": [129, 229], "duration": 0.02}, "hemifield": "right", "block": 6, "sequence_number": 101, "delay": 8.309204514029046, "tones": [{"toneNumber": 116, "time": 771.1559693999588, "prePupil": [0, 771.1434540999471], "postPupil": [0, 771.2060752999969]}, {"toneNumber": 117, "time": 775.7007216999773, "prePupil": [0, 775.6880537999677], "postPupil": [0, 775.750784999982]}, {"toneNumber": 118, "time": 777.3001645999611, "prePupil": [0, 777.287709999946], "postPupil": [0, 777.3502840999863]}], "extrakeypresses": [], "coordinates": [1.1091864914997203, -0.6590501511698053], "preSpotPupil": [0, 778.4368336999905], "startTime": 778.4579815999605, "postSpotPupil": [0, 779.4463229999528], "missed": true}
{"trialID": {"id": 101, "triggers": [129, 230], "duration": 0.02}, "hemifield": "right", "block": 6, "sequence_number": 102, "delay": 3.4623549652595207, "tones": [{"toneNumber": 119, "time": 782.0626912000007, "prePupil": [0, 782.0499577999581], "postPupil": [0, 782.1127676999895]}], "extrakeypresses": [], "coordinates": [13.740956010827336, 0.8719970152795842], "preSpotPupil": [0, 783.4376116999774], "startTime": 783.4554926999845, "postSpotPupil": [0, 784.4452122999937], "missed": true}
{"trialID": {"id": 102, "triggers": [129, 231], "duration": 0.02}, "hemifield": "right", "block": 6, "sequence_number": 103, "delay": 1.8044429320415514, "tones": [], "extrakeypresses": [], "coordinates": [11.594112474390622, -1.7815580519760728], "preSpotPupil": [0, 786.7786650999915], "startTime": 786.8043575999909, "postSpotPupil": [0, 787.7953696999466], "missed": true}
{"trialID": {"id": 103, "triggers": [129, 232], "duration": 0.02}, "hemifield": "right", "block": 6, "sequence_number": 104, "delay": 4.742803498616944, "tones": [], "extrakeypresses": [788.3683280999539], "coordinates": [11.215004727398163, -0.16811831593867943], "preSpotPupil": [0, 793.0660990999895], "startTime": 793.0881257999572, "postSpotPupil": [0, 793.6415354999481], "rt": 0.5055076999706216, "response_key": "2", "late": true}
{"trialID": {"id": 104, "triggers": [129, 233], "duration": 0.02}, "hemifield": "right", "block": 6, "sequence_number": 105, "delay": 8.602002764354605, "tones": [{"toneNumber": 120, "time": 795.9509014999494, "prePupil": [0, 795.938545299985], "postPupil": [0, 796.00096819998]}, {"toneNumber": 121, "time": 800.2575398999616, "prePupil": [0, 800.2454308999586], "postPupil": [0, 800.3076060999883]}, {"toneNumber": 122, "time": 802.7224997999729, "prePupil": [0, 802.7096876999713], "postPupil": [0, 802.772616799979]}], "extrakeypresses": [], "coordinates": [13.476766054441287, 8.20056154011773], "preSpotPupil": [0, 803.293367199949], "startTime": 803.3199254999636, "postSpotPupil": [0, 804.3075144999893], "missed": true}
{"trialID": {"id": 105, "triggers": [129, 234], "duration": 0.02}, "hemifield": "right", "block": 6, "sequence_number": 106, "delay": 4.38253670045638, "tones": [], "extrakeypresses": [], "coordinates": [3.296081399252891, -4.656140624003678], "preSpotPupil": [0, 809.218842000002], "startTime": 809.250391599955, "postSpotPupil": [0, 809.804491799965], "rt": 0.5156625999952666, "response_key": "2", "late": true}
{"trialID": {"id": 106, "triggers": [129, 235], "duration": 0.02}, "hemifield": "right", "block": 6, "sequence_number": 107, "delay": 4.76262742873118, "tones": [{"toneNumber": 123, "time": 812.494713699969, "prePupil": [0, 812.4818844999536], "postPupil": [0, 812.5448637999943]}], "extrakeypresses": [], "coordinates": [2.391618070294367, -7.519500059080714], "preSpotPupil": [0, 815.6145015999791], "startTime": 815.6494073999929, "postSpotPupil": [0, 816.2363427999662], "rt": 0.552390800032299, "response_key": "2", "late": true}
{"trialID": {"id": 107, "triggers": [129, 236], "duration": 0.02}, "hemifield": "right", "block": 6, "sequence_number": 108, "delay": 5.875540839372677, "tones": [{"toneNumber": 124, "time": 821.3834077999927, "prePupil": [0, 821.3715804999811], "postPupil": [0, 821.4334769999841]}], "extrakeypresses": [], "coordinates": [6.337401123555826, 1.8236974022577535], "preSpotPupil": [0, 823.1594566999702], "startTime": 823.1796990999719, "postSpotPupil": [0, 824.1695588000002], "missed": true}
