{"trialID": {"id": 0, "triggers": [192], "duration": 0.01}, "hemifield": "left", "block": 1, "sequence_number": 1, "delay": 8.16383899540011, "tones": [{"toneNumber": 0, "time": 65.21350410001469, "prePupil": [0, 65.20127400002093], "postPupil": [0, 65.26358090000576]}, {"toneNumber": 1, "time": 68.06167860000278, "prePupil": [0, 68.0493668000272], "postPupil": [0, 68.11173980002059]}], "extrakeypresses": [63.42492510000011], "coordinates": [-12.541235487502082, -3.9328518492345523], "preSpotPupil": [0, 72.02934830001323], "startTime": 72.04842880001524, "postSpotPupil": [0, 72.57026060001226], "rt": 0.4839569999894593, "response_key": "4", "late": true}
{"trialID": {"id": 1, "triggers": [193], "duration": 0.01}, "hemifield": "left", "block": 1, "sequence_number": 2, "delay": 8.827004260410373, "tones": [{"toneNumber": 2, "time": 77.77525540001807, "prePupil": [0, 77.76344130001962], "postPupil": [0, 77.82543029999943]}, {"toneNumber": 3, "time": 81.30306570001994, "prePupil": [0, 81.29112690000329], "postPupil": [0, 81.35313060000772]}], "extrakeypresses": [], "coordinates": [-10.377697386863929, -5.346933571221632], "preSpotPupil": [0, 82.44713400001638], "startTime": 82.46188520002761, "postSpotPupil": [0, 82.90114400000311], "rt": 0.39131770000676624, "response_key": "4"}
{"trialID": {"id": 2, "triggers": [194], "duration": 0.01}, "hemifield": "left", "block": 1, "sequence_number": 3, "delay": 2.4566256873081143, "tones": [], "extrakeypresses": [], "coordinates": [-2.6061015295301377, -4.741067963574304], "preSpotPupil": [0, 86.4080554000102], "startTime": 86.42941290000454, "postSpotPupil": [0, 87.31648950002273], "rt": 0.8488073000044096, "response_key": "4", "late": true}
{"trialID": {"id": 3, "triggers": [195], "duration": 0.01}, "hemifield": "left", "block": 1, "sequence_number": 4, "delay": 8.279202703558, "tones": [{"toneNumber": 4, "time": 89.37370510000619, "prePupil": [0, 89.36182160000317], "postPupil": [0, 89.42377220001072]}, {"toneNumber": 5, "time": 93.97259230000782, "prePupil": [0, 93.9608128000109], "postPupil": [0, 94.02265680002165]}], "extrakeypresses": [], "coordinates": [-1.8026134068654986, 8.56764198913523], "preSpotPupil": [0, 96.63138580002123], "startTime": 96.66127380001126, "postSpotPupil": [0, 97.63258730000234], "missed": true}
{"trialID": {"id": 4, "triggers": [196], "duration": 0.01}, "hemifield": "left", "block": 1, "sequence_number": 5, "delay": 9.396917256683508, "tones": [{"toneNumber": 6, "time": 99.5916758000094, "prePupil": [0, 99.57966760001727], "postPupil": [0, 99.64176570001291]}, {"toneNumber": 7, "time": 102.39036790002137, "prePupil": [0, 102.37812480001594], "postPupil": [0, 102.44043450002209]}, {"toneNumber": 8, "time": 105.30632620002143, "prePupil": [0, 105.29486530000577], "postPupil": [0, 105.3564214000071]}], "extrakeypresses": [], "coordinates": [-6.540826744997881, -0.07543856126238069], "preSpotPupil": [0, 107.55005100002745], "startTime": 107.57205100002466, "postSpotPupil": [0, 107.94585570000345], "rt": 0.33720339997671545, "response_key": "4"}
{"trialID": {"id": 5, "triggers": [197], "duration": 0.01}, "hemifield": "left", "block": 1, "sequence_number": 6, "delay": 3.6363578093870093, "tones": [{"toneNumber": 9, "time": 111.48505860002479, "prePupil": [0, 111.47351790001267], "postPupil": [0, 111.53516320002382]}], "extrakeypresses": [], "coordinates": [-3.578817612743318, 3.0843109331923504], "preSpotPupil": [0, 112.6272014999995], "startTime": 112.65599910001038, "postSpotPupil": [0, 113.07693350000773], "rt": 0.3813827000267338, "response_key": "4"}
{"trialID": {"id": 6, "triggers": [198], "duration": 0.01}, "hemifield": "left", "block": 1, "sequence_number": 7, "delay": 3.331910797548085, "tones": [{"toneNumber": 10, "time": 115.79487410001457, "prePupil": [0, 115.7817108000163], "postPupil": [0, 115.84505540001555]}], "extrakeypresses": [], "coordinates": [-10.448122595474361, 6.067710348635877], "preSpotPupil": [0, 117.45858540001791], "startTime": 117.48783019999973, "postSpotPupil": [0, 117.90865420000046], "rt": 0.3922624999831896, "response_key": "4"}
{"trialID": {"id": 7, "triggers": [199], "duration": 0.01}, "hemifield": "left", "block": 1, "sequence_number": 8, "delay": 3.797728428404029, "tones": [{"toneNumber": 11, "time": 121.21415650000563, "prePupil": [0, 121.20197760002338], "postPupil": [0, 121.26427380001405]}], "extrakeypresses": [], "coordinates": [-3.101476428263039, -7.422125235475138], "preSpotPupil": [0, 122.76096660000621], "startTime": 122.78645160002634, "postSpotPupil": [0, 123.32442100002663], "rt": 0.4966123000194784, "response_key": "4", "late": true}
{"trialID": {"id": 8, "triggers": [200], "duration": 0.01}, "hemifield": "left", "block": 1, "sequence_number": 9, "delay": 7.290073800620997, "tones": [{"toneNumber": 12, "time": 126.58095580001827, "prePupil": [0, 126.5688000000082], "postPupil": [0, 126.6310278000019]}, {"toneNumber": 13, "time": 128.69209870000486, "prePupil": [0, 128.68025820000912], "postPupil": [0, 128.74219830002403]}], "extrakeypresses": [], "coordinates": [-10.970853934153956, 2.577449774130839], "preSpotPupil": [0, 131.66519660002086], "startTime": 131.68413050001254, "postSpotPupil": [0, 132.13884570001392], "rt": 0.411927300010575, "response_key": "4"}
{"trialID": {"id": 9, "triggers": [201], "duration": 0.01}, "hemifield": "left", "block": 1, "sequence_number": 10, "delay": 4.434616483480399, "tones": [{"toneNumber": 14, "time": 136.55236020000302, "prePupil": [0, 136.5405246000155], "postPupil": [0, 136.60242360000848]}], "extrakeypresses": [], "coordinates": [-7.4486183520287135, 6.565490487173999], "preSpotPupil": [0, 137.62488350001513], "startTime": 137.65014440001687, "postSpotPupil": [0, 138.07093040001928], "rt": 0.37908929999684915, "response_key": "4"}
{"trialID": {"id": 10, "triggers": [202], "duration": 0.01}, "hemifield": "left", "block": 1, "sequence_number": 11, "delay": 7.66829881420003, "tones": [{"toneNumber": 15, "time": 141.72573220002232, "prePupil": [0, 141.71325860000798], "postPupil": [0, 141.77579920002609]}], "extrakeypresses": [], "coordinates": [-3.3478103030039907, 1.3169652643715448], "preSpotPupil": [0, 146.78957020002417], "startTime": 146.81493870000122, "postSpotPupil": [0, 147.18521120000514], "rt": 0.3243332999991253, "response_key": "4"}
{"trialID": {"id": 11, "triggers": [203], "duration": 0.01}, "hemifield": "left", "block": 1, "sequence_number": 12, "delay": 3.822123393607053, "tones": [{"toneNumber": 16, "time": 150.80285010000807, "prePupil": [0, 150.79094780000742], "postPupil": [0, 150.85292330000084]}], "extrakeypresses": [], "coordinates": [-12.91744638952041, -2.8940708144721023], "preSpotPupil": [0, 152.05813750001835], "startTime": 152.0789356000023, "postSpotPupil": [0, 152.55066060001263], "rt": 0.43647230000351556, "response_key": "4"}
{"trialID": {"id": 12, "triggers": [204], "duration": 0.01}, "hemifield": "left", "block": 1, "sequence_number": 13, "delay": 6.118451094831488, "tones": [{"toneNumber": 17, "time": 155.4429739000043, "prePupil": [0, 155.43082890001824], "postPupil": [0, 155.49310140000307]}], "extrakeypresses": [], "coordinates": [-6.380269175896883, 3.168735378762083], "preSpotPupil": [0, 159.7211168000067], "startTime": 159.7445595000172, "postSpotPupil": [0, 160.13237570002093], "rt": 0.3508860000001732, "response_key": "4"}
{"trialID": {"id": 13, "triggers": [205], "duration": 0.01}, "hemifield": "left", "block": 1, "sequence_number": 14, "delay": 9.099106376519904, "tones": [{"toneNumber": 18, "time": 163.85578280000482, "prePupil": [0, 163.84367660002317], "postPupil": [0, 163.90587260000757]}, {"toneNumber": 19, "time": 165.5365948000108, "prePupil": [0, 165.52471100000548], "postPupil": [0, 165.5867124000215]}, {"toneNumber": 20, "time": 169.5313721000275, "prePupil": [0, 169.51881880001747], "postPupil": [0, 169.581436700013]}], "extrakeypresses": [], "coordinates": [-15.588526746443092, -3.764526868902778], "preSpotPupil": [0, 170.2825956000015], "startTime": 170.30827160002082, "postSpotPupil": [0, 171.29746580001665], "missed": true}
{"trialID": {"id": 14, "triggers": [206], "duration": 0.01}, "hemifield": "left", "block": 1, "sequence_number": 15, "delay": 4.376847824597028, "tones": [{"toneNumber": 21, "time": 175.18150460001198, "prePupil": [0, 175.16912850001245], "postPupil": [0, 175.23158600000897]}], "extrakeypresses": [173.27754180002376], "coordinates": [-5.8395323149404845, 0.6806273029639449], "preSpotPupil": [0, 176.19262680000975], "startTime": 176.2228317000263, "postSpotPupil": [0, 176.6449232000159], "rt": 0.3875318999926094, "response_key": "4"}
{"trialID": {"id": 15, "triggers": [207], "duration": 0.01}, "hemifield": "left", "block": 1, "sequence_number": 16, "delay": 9.22116145476441, "tones": [{"toneNumber": 22, "time": 179.29067790001864, "prePupil": [0, 179.2782819000131], "postPupil": [0, 179.34074080002028]}, {"toneNumber": 23, "time": 182.4329617000185, "prePupil": [0, 182.41999220001162], "postPupil": [0, 182.48305200002505]}, {"toneNumber": 24, "time": 184.51620209999965, "prePupil": [0, 184.50429940002505], "postPupil": [0, 184.5662865000195]}], "extrakeypresses": [], "coordinates": [-13.378581593755847, 6.248804844584347], "preSpotPupil": [0, 186.91866830000072], "startTime": 186.94317120002233, "postSpotPupil": [0, 187.92737220000708], "missed": true}
{"trialID": {"id": 16, "triggers": [208], "duration": 0.01}, "hemifield": "right", "block": 2, "sequence_number": 17, "delay": 8.041948142538427, "tones": [{"toneNumber": 25, "time": 192.86195210000733, "prePupil": [0, 192.8489662000211], "postPupil": [0, 192.9120173000265]}, {"toneNumber": 26, "time": 196.13386970001739, "prePupil": [0, 196.12130270001944], "postPupil": [0, 196.18396250001388]}], "extrakeypresses": [191.013869300019], "coordinates": [5.282268042708915, -4.680179009346768], "preSpotPupil": [0, 199.54169540002476], "startTime": 199.56908710001153, "postSpotPupil": [0, 199.93909830000484], "rt": 0.3281598000030499, "response_key": "4"}
{"trialID": {"id": 17, "triggers": [209], "duration": 0.01}, "hemifield": "right", "block": 2, "sequence_number": 18, "delay": 9.03841098679045, "tones": [{"toneNumber": 27, "time": 203.42934850000893, "prePupil": [0, 203.41687090002233], "postPupil": [0, 203.47947080002632]}, {"toneNumber": 28, "time": 207.97690320000402, "prePupil": [0, 207.9642947000102], "postPupil": [0, 208.02700470000855]}], "extrakeypresses": [], "coordinates": [3.1741958758157223, 1.6206339745617306], "preSpotPupil": [0, 210.0283335999993], "startTime": 210.04843680001795, "postSpotPupil": [0, 210.40321160000167], "rt": 0.3178888999973424, "response_key": "4"}
{"trialID": {"id": 18, "triggers": [210], "duration": 0.01}, "hemifield": "right", "block": 2, "sequence_number": 19, "delay": 9.08920632116662, "tones": [{"toneNumber": 29, "time": 213.9915213000204, "prePupil": [0, 213.97926120000193], "postPupil": [0, 214.0416125000047]}, {"toneNumber": 30, "time": 216.3805282000103, "prePupil": [0, 216.3675160999992], "postPupil": [0, 216.43059340000036]}, {"toneNumber": 31, "time": 219.95911670001806, "prePupil": [0, 219.94584140001098], "postPupil": [0, 220.00923410002724]}], "extrakeypresses": [], "coordinates": [13.483677643808601, -7.835198133536631], "preSpotPupil": [0, 220.54414920002455], "startTime": 220.56313990001217, "postSpotPupil": [0, 221.55276300001424], "missed": true}
{"trialID": {"id": 19, "triggers": [211], "duration": 0.01}, "hemifield": "right", "block": 2, "sequence_number": 20, "delay": 7.2799252823409155, "tones": [{"toneNumber": 32, "time": 223.29303510001046, "prePupil": [0, 223.28117840000778], "postPupil": [0, 223.3431324000121]}, {"toneNumber": 33, "time": 227.32360980001977, "prePupil": [0, 227.31169880001107], "postPupil": [0, 227.37366820001625]}], "extrakeypresses": [], "coordinates": [2.2763618598504616, -4.895568623195883], "preSpotPupil": [0, 229.3525744000217], "startTime": 229.37642620000406, "postSpotPupil": [0, 229.84833820001222], "rt": 0.4367921999946702, "response_key": "4"}
{"trialID": {"id": 20, "triggers": [212], "duration": 0.01}, "hemifield": "right", "block": 2, "sequence_number": 21, "delay": 3.087777448924097, "tones": [], "extrakeypresses": [], "coordinates": [6.957069656421606, 1.7394955442401816], "preSpotPupil": [0, 233.98823970000376], "startTime": 234.00957690001815, "postSpotPupil": [0, 234.53062970002065], "rt": 0.48379290002048947, "response_key": "4", "late": true}
{"trialID": {"id": 21, "triggers": [213], "duration": 0.01}, "hemifield": "right", "block": 2, "sequence_number": 22, "delay": 4.91756227138221, "tones": [{"toneNumber": 34, "time": 238.15422810000018, "prePupil": [0, 238.14165650002542], "postPupil": [0, 238.20431060000556]}, {"toneNumber": 35, "time": 239.84510330000194, "prePupil": [0, 239.83368360000895], "postPupil": [0, 239.895170600008]}], "extrakeypresses": [], "coordinates": [7.479317703695734, -0.35845097619845845], "preSpotPupil": [0, 240.49784460000228], "startTime": 240.52485600000364, "postSpotPupil": [0, 241.12859440001193], "rt": 0.5842856999952346, "response_key": "4", "late": true}
{"trialID": {"id": 22, "triggers": [214], "duration": 0.01}, "hemifield": "right", "block": 2, "sequence_number": 23, "delay": 2.4388846871140215, "tones": [{"toneNumber": 36, "time": 243.763732899999, "prePupil": [0, 243.75185260002036], "postPupil": [0, 243.81381730001885]}], "extrakeypresses": [], "coordinates": [11.104243662801583, -7.648171946546035], "preSpotPupil": [0, 244.6024854000134], "startTime": 244.62168810001458, "postSpotPupil": [0, 245.14475830001174], "rt": 0.4886498999840114, "response_key": "4", "late": true}
{"trialID": {"id": 23, "triggers": [215], "duration": 0.01}, "hemifield": "right", "block": 2, "sequence_number": 24, "delay": 4.640470660340363, "tones": [{"toneNumber": 37, "time": 247.79312000001664, "prePupil": [0, 247.78104490000987], "postPupil": [0, 247.8431852000067]}], "extrakeypresses": [], "coordinates": [1.1389922434199093, -2.8169548331593415], "preSpotPupil": [0, 250.8364257000212], "startTime": 250.85427900002105, "postSpotPupil": [0, 251.2265770000231], "rt": 0.32409300000290386, "response_key": "4"}
{"trialID": {"id": 24, "triggers": [216], "duration": 0.01}, "hemifield": "right", "block": 2, "sequence_number": 25, "delay": 1.78144443017396, "tones": [], "extrakeypresses": [], "coordinates": [6.016042043717602, 5.186956764399641], "preSpotPupil": [0, 254.0592271000205], "startTime": 254.0884298000019, "postSpotPupil": [0, 254.5589961000078], "rt": 0.4229204999865033, "response_key": "4"}
{"trialID": {"id": 25, "triggers": [217], "duration": 0.01}, "hemifield": "right", "block": 2, "sequence_number": 26, "delay": 2.287725554173308, "tones": [], "extrakeypresses": [], "coordinates": [5.757887139087422, -1.0108327128834516], "preSpotPupil": [0, 257.89837090001674], "startTime": 257.9197936000128, "postSpotPupil": [0, 258.3414968000143], "rt": 0.3804911999905016, "response_key": "4"}
{"trialID": {"id": 26, "triggers": [218], "duration": 0.01}, "hemifield": "right", "block": 2, "sequence_number": 27, "delay": 3.48669595023716, "tones": [], "extrakeypresses": [], "coordinates": [7.642257321624459, 3.6347397361089246], "preSpotPupil": [0, 262.87818580001476], "startTime": 262.9018966000003, "postSpotPupil": [0, 263.34027520002564], "rt": 0.3960164000163786, "response_key": "4"}
{"trialID": {"id": 27, "triggers": [219], "duration": 0.01}, "hemifield": "right", "block": 2, "sequence_number": 28, "delay": 4.350199773744032, "tones": [{"toneNumber": 38, "time": 265.53243610000936, "prePupil": [0, 265.519472200016], "postPupil": [0, 265.5826995000243]}], "extrakeypresses": [], "coordinates": [7.833123573939265, -1.8055818856668049], "preSpotPupil": [0, 268.74415160002536], "startTime": 268.76709370000754, "postSpotPupil": [0, 269.1554889000254], "rt": 0.348351199994795, "response_key": "4"}
{"trialID": {"id": 28, "triggers": [220], "duration": 0.01}, "hemifield": "right", "block": 2, "sequence_number": 29, "delay": 2.219671288508928, "tones": [], "extrakeypresses": [], "coordinates": [13.85213299200406, 3.3847314440087164], "preSpotPupil": [0, 272.42580160000944], "startTime": 272.4513564000081, "postSpotPupil": [0, 273.204592300026], "rt": 0.705947800015565, "response_key": "4", "late": true}
{"trialID": {"id": 29, "triggers": [221], "duration": 0.01}, "hemifield": "right", "block": 2, "sequence_number": 30, "delay": 2.5218048489034084, "tones": [], "extrakeypresses": [], "coordinates": [5.278036389301932, -5.978755773510596], "preSpotPupil": [0, 276.7602789000084], "startTime": 276.7827046000166, "postSpotPupil": [0, 277.1535737000231], "rt": 0.33582920001936145, "response_key": "4"}
{"trialID": {"id": 30, "triggers": [222], "duration": 0.01}, "hemifield": "right", "block": 2, "sequence_number": 31, "delay": 1.8813624309400652, "tones": [], "extrakeypresses": [], "coordinates": [4.249859951592709, -1.996922881956154], "preSpotPupil": [0, 280.0845657000027], "startTime": 280.1161971000256, "postSpotPupil": [0, 280.46973380001145], "rt": 0.31319310000981204, "response_key": "4"}
{"trialID": {"id": 31, "triggers": [223], "duration": 0.01}, "hemifield": "right", "block": 2, "sequence_number": 32, "delay": 5.560659520641349, "tones": [{"toneNumber": 39, "time": 283.41896390001057, "prePupil": [0, 283.40712720001466], "postPupil": [0, 283.4690310000151]}], "extrakeypresses": [], "coordinates": [9.462573267651406, -2.3516754268768825], "preSpotPupil": [0, 287.08110820001457], "startTime": 287.095255799999, "postSpotPupil": [0, 287.53436750001856], "rt": 0.39813040001899935, "response_key": "4"}
{"trialID": {"id": 32, "triggers": [224], "duration": 0.01}, "hemifield": "right", "block": 2, "sequence_number": 33, "delay": 5.152078118870213, "tones": [{"toneNumber": 40, "time": 292.955085100024, "prePupil": [0, 292.94314970000414], "postPupil": [0, 293.00519020002685]}], "extrakeypresses": [], "coordinates": [2.757075537515724, -6.863294742206777], "preSpotPupil": [0, 293.7352925000014], "startTime": 293.7625717000046, "postSpotPupil": [0, 294.1493744000036], "rt": 0.34179050000966527, "response_key": "4"}
{"trialID": {"id": 33, "triggers": [225], "duration": 0.01}, "hemifield": "right", "block": 2, "sequence_number": 34, "delay": 7.5387174089105375, "tones": [{"toneNumber": 41, "time": 298.6600960000069, "prePupil": [0, 298.64679580001393], "postPupil": [0, 298.71018580000964]}, {"toneNumber": 42, "time": 300.4268664000265, "prePupil": [0, 300.4153655000264], "postPupil": [0, 300.47695800001384]}], "extrakeypresses": [], "coordinates": [9.083670289144255, 1.7901291773495096], "preSpotPupil": [0, 302.7400972000032], "startTime": 302.76050340000074, "postSpotPupil": [0, 303.1306038000039], "rt": 0.33188449998851866, "response_key": "4"}
{"trialID": {"id": 34, "triggers": [226], "duration": 0.01}, "hemifield": "right", "block": 2, "sequence_number": 35, "delay": 2.6248664620380078, "tones": [], "extrakeypresses": [], "coordinates": [9.598360537509512, -2.4410541926441356], "preSpotPupil": [0, 306.8050823000085], "startTime": 306.8246237000276, "postSpotPupil": [0, 307.8144086000102], "missed": true}
{"trialID": {"id": 35, "triggers": [227], "duration": 0.01}, "hemifield": "right", "block": 2, "sequence_number": 36, "delay": 4.520434672755454, "tones": [{"toneNumber": 43, "time": 309.4795206000272, "prePupil": [0, 309.4666577000171], "postPupil": [0, 309.5295941000222]}], "extrakeypresses": [], "coordinates": [2.0780170789280463, 1.495767448846813], "preSpotPupil": [0, 312.85198490001494], "startTime": 312.87290370001574, "postSpotPupil": [0, 313.24479280001833], "rt": 0.33655750000616536, "response_key": "4"}
{"trialID": {"id": 36, "triggers": [228], "duration": 0.01}, "hemifield": "left", "block": 3, "sequence_number": 37, "delay": 2.990560169396476, "tones": [], "extrakeypresses": [], "coordinates": [-8.020296064958417, -0.7502614372930303], "preSpotPupil": [0, 320.34467790002236], "startTime": 320.37211300001945, "postSpotPupil": [0, 320.84278770000674], "rt": 0.4253268000029493, "response_key": "4"}
{"trialID": {"id": 37, "triggers": [229], "duration": 0.01}, "hemifield": "left", "block": 3, "sequence_number": 38, "delay": 5.626215729347981, "tones": [{"toneNumber": 44, "time": 326.3110309000185, "prePupil": [0, 326.29922230000375], "postPupil": [0, 326.36110960002407]}], "extrakeypresses": [], "coordinates": [-5.574926300603183, -6.494307593720395], "preSpotPupil": [0, 327.51974530000007], "startTime": 327.5361741000088, "postSpotPupil": [0, 327.94125480001094], "rt": 0.3730933000042569, "response_key": "4"}
{"trialID": {"id": 38, "triggers": [230], "duration": 0.01}, "hemifield": "left", "block": 3, "sequence_number": 39, "delay": 2.9568304728834667, "tones": [{"toneNumber": 45, "time": 330.7426255000173, "prePupil": [0, 330.730200400023], "postPupil": [0, 330.79269490001025]}], "extrakeypresses": [], "coordinates": [-1.7733205882671026, -5.792946422761445], "preSpotPupil": [0, 331.9495567000122], "startTime": 331.9686225000187, "postSpotPupil": [0, 332.65705840001465], "rt": 0.6557290000200737, "response_key": "4", "late": true}
{"trialID": {"id": 39, "triggers": [231], "duration": 0.01}, "hemifield": "left", "block": 3, "sequence_number": 40, "delay": 6.653165164309029, "tones": [{"toneNumber": 46, "time": 336.91280700001516, "prePupil": [0, 336.8999495000171], "postPupil": [0, 336.962866100017]}], "extrakeypresses": [], "coordinates": [-11.905453520220355, 0.1726562221018586], "preSpotPupil": [0, 340.34536930001923], "startTime": 340.3663614000252, "postSpotPupil": [0, 340.88805600002524], "rt": 0.47416020001401193, "response_key": "4", "late": true}
{"trialID": {"id": 40, "triggers": [232], "duration": 0.01}, "hemifield": "left", "block": 3, "sequence_number": 41, "delay": 7.787510235084554, "tones": [{"toneNumber": 47, "time": 346.0621592000243, "prePupil": [0, 346.04994050000096], "postPupil": [0, 346.11223280002014]}, {"toneNumber": 48, "time": 348.29274540001643, "prePupil": [0, 348.2799367000116], "postPupil": [0, 348.3428678000055]}], "extrakeypresses": [], "coordinates": [-4.158436029326991, 5.819110715514983], "preSpotPupil": [0, 349.7304877000279], "startTime": 349.7467160000233, "postSpotPupil": [0, 350.73753340000985], "missed": true}
{"trialID": {"id": 41, "triggers": [233], "duration": 0.01}, "hemifield": "left", "block": 3, "sequence_number": 42, "delay": 2.135668829978668, "tones": [{"toneNumber": 49, "time": 352.3143450000207, "prePupil": [0, 352.3011500000139], "postPupil": [0, 352.364485099999]}], "extrakeypresses": [], "coordinates": [-8.147420232539043, 0.9430174260039745], "preSpotPupil": [0, 353.39185690000886], "startTime": 353.4122877000191, "postSpotPupil": [0, 353.85144490000675], "rt": 0.3940709999878891, "response_key": "4"}
{"trialID": {"id": 42, "triggers": [234], "duration": 0.01}, "hemifield": "left", "block": 3, "sequence_number": 43, "delay": 9.418157401073916, "tones": [{"toneNumber": 50, "time": 357.91674050001893, "prePupil": [0, 357.9049052000046], "postPupil": [0, 357.9668181000161]}, {"toneNumber": 51, "time": 361.39073020001524, "prePupil": [0, 361.3785334000131], "postPupil": [0, 361.44079320001765]}], "extrakeypresses": [], "coordinates": [-1.8057723067516136, -5.965904201826322], "preSpotPupil": [0, 364.3191187000193], "startTime": 364.3455471000052, "postSpotPupil": [0, 364.69886240002234], "rt": 0.31692119999206625, "response_key": "4"}
{"trialID": {"id": 43, "triggers": [235], "duration": 0.01}, "hemifield": "left", "block": 3, "sequence_number": 44, "delay": 7.085541174928668, "tones": [{"toneNumber": 52, "time": 366.77946050002356, "prePupil": [0, 366.7669458000164], "postPupil": [0, 366.8295309000241]}, {"toneNumber": 53, "time": 370.1400455000112, "prePupil": [0, 370.12730770002236], "postPupil": [0, 370.1901056000206]}], "extrakeypresses": [], "coordinates": [-14.461483303107105, -5.094112373447064], "preSpotPupil": [0, 372.83543390000705], "startTime": 372.85822230001213, "postSpotPupil": [0, 373.29708519999986], "rt": 0.39109889999963343, "response_key": "4"}
{"trialID": {"id": 44, "triggers": [236], "duration": 0.01}, "hemifield": "left", "block": 3, "sequence_number": 45, "delay": 9.24759017408774, "tones": [{"toneNumber": 54, "time": 377.87520760000916, "prePupil": [0, 377.86268400002155], "postPupil": [0, 377.92527640002663]}, {"toneNumber": 55, "time": 382.14504520001356, "prePupil": [0, 382.1328311000252], "postPupil": [0, 382.19509970000945]}], "extrakeypresses": [], "coordinates": [-5.94847978985432, -2.3292507926846016], "preSpotPupil": [0, 383.59523679999984], "startTime": 383.6245568000013, "postSpotPupil": [0, 383.96090430000913], "rt": 0.3037737999984529, "response_key": "4"}
{"trialID": {"id": 45, "triggers": [237], "duration": 0.01}, "hemifield": "left", "block": 3, "sequence_number": 46, "delay": 4.415207244004845, "tones": [], "extrakeypresses": [], "coordinates": [-3.8373307091241564, -6.660987681006106], "preSpotPupil": [0, 389.4259781000146], "startTime": 389.45452150001074, "postSpotPupil": [0, 389.87637190002715], "rt": 0.37824299998464994, "response_key": "4"}
{"trialID": {"id": 46, "triggers": [238], "duration": 0.01}, "hemifield": "left", "block": 3, "sequence_number": 47, "delay": 7.360455611832677, "tones": [{"toneNumber": 56, "time": 394.3459181000071, "prePupil": [0, 394.333862200001], "postPupil": [0, 394.3960816000181]}], "extrakeypresses": [], "coordinates": [-7.938732980818223, 4.5003135960865475], "preSpotPupil": [0, 398.28639360002126], "startTime": 398.32096700000693, "postSpotPupil": [0, 398.70787250000285], "rt": 0.34946620001574047, "response_key": "4"}
{"trialID": {"id": 47, "triggers": [239], "duration": 0.01}, "hemifield": "left", "block": 3, "sequence_number": 48, "delay": 2.8402685672680494, "tones": [{"toneNumber": 57, "time": 401.68549910001457, "prePupil": [0, 401.6741562000243], "postPupil": [0, 401.7355995000107]}], "extrakeypresses": [], "coordinates": [-8.032344118669872, 6.765169306123845], "preSpotPupil": [0, 402.59795310001937], "startTime": 402.6196322000178, "postSpotPupil": [0, 403.1729567000002], "rt": 0.5088912000064738, "response_key": "4", "late": true}
{"trialID": {"id": 48, "triggers": [240], "duration": 0.01}, "hemifield": "left", "block": 3, "sequence_number": 49, "delay": 8.856324084450081, "tones": [{"toneNumber": 58, "time": 408.2413740000047, "prePupil": [0, 408.22857320000185], "postPupil": [0, 408.2914532000141]}, {"toneNumber": 59, "time": 412.4580856000248, "prePupil": [0, 412.44483430002583], "postPupil": [0, 412.5081561000261]}], "extrakeypresses": [], "coordinates": [-3.280439845454124, -6.967473233312985], "preSpotPupil": [0, 413.0629073000164], "startTime": 413.0819609000173, "postSpotPupil": [0, 413.53722640001797], "rt": 0.41453619999811053, "response_key": "4"}
{"trialID": {"id": 49, "triggers": [241], "duration": 0.01}, "hemifield": "left", "block": 3, "sequence_number": 50, "delay": 2.765606886699273, "tones": [], "extrakeypresses": [], "coordinates": [-5.291671050140154, -4.833190951373888], "preSpotPupil": [0, 417.3551958000171], "startTime": 417.38155260001076, "postSpotPupil": [0, 417.83592940002563], "rt": 0.4088564999983646, "response_key": "4"}
{"trialID": {"id": 50, "triggers": [242], "duration": 0.01}, "hemifield": "left", "block": 3, "sequence_number": 51, "delay": 2.286776093136676, "tones": [], "extrakeypresses": [], "coordinates": [-3.916974867885761, 4.623108263273782], "preSpotPupil": [0, 421.17195430002175], "startTime": 421.1975994000095, "postSpotPupil": [0, 421.61835450000945], "rt": 0.37895600000047125, "response_key": "4"}
{"trialID": {"id": 51, "triggers": [243], "duration": 0.01}, "hemifield": "left", "block": 3, "sequence_number": 52, "delay": 4.431354417529945, "tones": [{"toneNumber": 60, "time": 424.0329915000184, "prePupil": [0, 424.0206370000087], "postPupil": [0, 424.0830667000264]}], "extrakeypresses": [], "coordinates": [-3.0425903474627987, 8.140371642304578], "preSpotPupil": [0, 427.100362600002], "startTime": 427.1300271000073, "postSpotPupil": [0, 427.86691050001536], "rt": 0.695499999972526, "response_key": "4", "late": true}
{"trialID": {"id": 52, "triggers": [244], "duration": 0.01}, "hemifield": "left", "block": 3, "sequence_number": 53, "delay": 6.1592080837009755, "tones": [{"toneNumber": 61, "time": 429.9378053000255, "prePupil": [0, 429.92585800000234], "postPupil": [0, 429.98794170000474]}], "extrakeypresses": [], "coordinates": [-12.808497092169993, -3.3287469861378733], "preSpotPupil": [0, 435.06426900002407], "startTime": 435.09476510001696, "postSpotPupil": [0, 435.5316973000008], "rt": 0.4016451000061352, "response_key": "4"}
{"trialID": {"id": 53, "triggers": [245], "duration": 0.01}, "hemifield": "left", "block": 3, "sequence_number": 54, "delay": 6.670813565531281, "tones": [{"toneNumber": 62, "time": 438.0549232000194, "prePupil": [0, 438.0434803000244], "postPupil": [0, 438.10499340001843]}, {"toneNumber": 63, "time": 440.26344670000253, "prePupil": [0, 440.2504272000224], "postPupil": [0, 440.31351550002]}], "extrakeypresses": [], "coordinates": [-6.209272896796017, -3.9863186636718133], "preSpotPupil": [0, 443.2533143000037], "startTime": 443.2747285000223, "postSpotPupil": [0, 443.6798309000151], "rt": 0.36023130000103265, "response_key": "4"}
{"trialID": {"id": 54, "triggers": [246], "duration": 0.01}, "hemifield": "right", "block": 4, "sequence_number": 55, "delay": 4.015181105262639, "tones": [{"toneNumber": 64, "time": 449.6624975000159, "prePupil": [0, 449.6503759000043], "postPupil": [0, 449.7125993000227]}], "extrakeypresses": [], "coordinates": [10.536294674598087, 6.0717141469030285], "preSpotPupil": [0, 451.78584020002745], "startTime": 451.8061504000216, "postSpotPupil": [0, 452.3109049000195], "rt": 0.47224780000397004, "response_key": "4"}
{"trialID": {"id": 55, "triggers": [247], "duration": 0.01}, "hemifield": "right", "block": 4, "sequence_number": 56, "delay": 4.63922351330409, "tones": [{"toneNumber": 65, "time": 456.6897196000209, "prePupil": [0, 456.6774624000245], "postPupil": [0, 456.7397845000087]}], "extrakeypresses": [], "coordinates": [13.20029219051599, -3.9192800714599345], "preSpotPupil": [0, 458.00023840001086], "startTime": 458.02052570000524, "postSpotPupil": [0, 458.20935340001597], "rt": 0.14095760000054725, "response_key": "4"}
{"trialID": {"id": 56, "triggers": [248], "duration": 0.01}, "hemifield": "right", "block": 4, "sequence_number": 57, "delay": 1.6061109416781845, "tones": [], "extrakeypresses": [], "coordinates": [12.560862162030226, -1.1484511298551183], "preSpotPupil": [0, 460.86586109999917], "startTime": 460.8868779000186, "postSpotPupil": [0, 461.87676310000825], "missed": true}
{"trialID": {"id": 57, "triggers": [249], "duration": 0.01}, "hemifield": "right", "block": 4, "sequence_number": 58, "delay": 6.310693437737172, "tones": [{"toneNumber": 66, "time": 465.8123530000157, "prePupil": [0, 465.7991031999991], "postPupil": [0, 465.86242840002524]}], "extrakeypresses": [], "coordinates": [1.5854810486120816, -0.6134720042633415], "preSpotPupil": [0, 468.70513850002317], "startTime": 468.7347121000057, "postSpotPupil": [0, 469.0568575000216], "rt": 0.2880271000030916, "response_key": "4"}
{"trialID": {"id": 58, "triggers": [250], "duration": 0.01}, "hemifield": "right", "block": 4, "sequence_number": 59, "delay": 8.261682878780395, "tones": [{"toneNumber": 67, "time": 471.2789585000137, "prePupil": [0, 471.26555270000244], "postPupil": [0, 471.32901540002786]}, {"toneNumber": 68, "time": 474.7035902000207, "prePupil": [0, 474.6917477000097], "postPupil": [0, 474.753717900021]}, {"toneNumber": 69, "time": 477.7827884000144, "prePupil": [0, 477.77117380002164], "postPupil": [0, 477.8328701000137]}], "extrakeypresses": [], "coordinates": [1.532921414455237, 6.172449619577568], "preSpotPupil": [0, 478.3671101000218], "startTime": 478.3826845000149, "postSpotPupil": [0, 478.90453840000555], "rt": 0.4857438000035472, "response_key": "4", "late": true}
{"trialID": {"id": 59, "triggers": [251], "duration": 0.01}, "hemifield": "right", "block": 4, "sequence_number": 60, "delay": 2.4189231095332273, "tones": [], "extrakeypresses": [], "coordinates": [14.476768776722551, 4.031785418637174], "preSpotPupil": [0, 482.37407620000886], "startTime": 482.39872950001154, "postSpotPupil": [0, 483.3889001000207], "missed": true}
{"trialID": {"id": 60, "triggers": [252], "duration": 0.01}, "hemifield": "right", "block": 4, "sequence_number": 61, "delay": 8.36148941848273, "tones": [{"toneNumber": 70, "time": 487.69385730000795, "prePupil": [0, 487.68200430000434], "postPupil": [0, 487.7439297000237]}], "extrakeypresses": [], "coordinates": [8.975169272691982, 3.57758386250638], "preSpotPupil": [0, 492.26901570000337], "startTime": 492.29511890001595, "postSpotPupil": [0, 492.3846973000036], "rt": 0.056820400001015514, "response_key": "4"}
{"trialID": {"id": 61, "triggers": [253], "duration": 0.01}, "hemifield": "right", "block": 4, "sequence_number": 62, "delay": 8.586430326668031, "tones": [{"toneNumber": 71, "time": 496.2959630000114, "prePupil": [0, 496.28434450001805], "postPupil": [0, 496.34603670000797]}, {"toneNumber": 72, "time": 500.0516720000014, "prePupil": [0, 500.0394736000162], "postPupil": [0, 500.10177890001796]}], "extrakeypresses": [], "coordinates": [9.987858166098095, 1.8942126558145507], "preSpotPupil": [0, 502.13808960001916], "startTime": 502.16077600000426, "postSpotPupil": [0, 502.6154889000172], "rt": 0.4208997000241652, "response_key": "4"}
{"trialID": {"id": 62, "triggers": [254], "duration": 0.01}, "hemifield": "right", "block": 4, "sequence_number": 63, "delay": 3.1861340434527285, "tones": [{"toneNumber": 73, "time": 505.1220859000168, "prePupil": [0, 505.10989700001664], "postPupil": [0, 505.1721712000144]}], "extrakeypresses": [], "coordinates": [6.922080785758287, -7.352261818310647], "preSpotPupil": [0, 506.854604400025], "startTime": 506.87537870000233, "postSpotPupil": [0, 507.3311433000199], "rt": 0.4152884999930393, "response_key": "4"}
{"trialID": {"id": 63, "triggers": [129, 192], "duration": 0.02}, "hemifield": "right", "block": 4, "sequence_number": 64, "delay": 8.92426916336709, "tones": [{"toneNumber": 74, "time": 511.18223710000166, "prePupil": [0, 511.1688023000024], "postPupil": [0, 511.23231770002167]}, {"toneNumber": 75, "time": 516.1364455000148, "prePupil": [0, 516.1250805000018], "postPupil": [0, 516.1865275000164]}], "extrakeypresses": [], "coordinates": [6.945175943139134, 6.104841943921441], "preSpotPupil": [0, 517.315940600005], "startTime": 517.3414779000159, "postSpotPupil": [0, 517.7785406000039], "rt": 0.3971503999782726, "response_key": "4"}
{"trialID": {"id": 64, "triggers": [129, 193], "duration": 0.02}, "hemifield": "right", "block": 4, "sequence_number": 65, "delay": 3.5744967511046184, "tones": [{"toneNumber": 76, "time": 521.6556192999997, "prePupil": [0, 521.6437699000235], "postPupil": [0, 521.7056875000126]}], "extrakeypresses": [], "coordinates": [3.4433126810333583, -1.0123473172584934], "preSpotPupil": [0, 522.4131769000087], "startTime": 522.4394255000225, "postSpotPupil": [0, 522.8269968000241], "rt": 0.3470233000116423, "response_key": "4"}
{"trialID": {"id": 65, "triggers": [129, 194], "duration": 0.02}, "hemifield": "right", "block": 4, "sequence_number": 66, "delay": 5.4016412058092875, "tones": [{"toneNumber": 77, "time": 526.7509618000186, "prePupil": [0, 526.7382584000006], "postPupil": [0, 526.8010342000052]}, {"toneNumber": 78, "time": 528.5615628000232, "prePupil": [0, 528.549106600025], "postPupil": [0, 528.6116465000086]}], "extrakeypresses": [], "coordinates": [2.4301435431174605, 6.942592947242712], "preSpotPupil": [0, 529.290058100014], "startTime": 529.3216771000007, "postSpotPupil": [0, 529.841751400003], "rt": 0.4729536999948323, "response_key": "4", "late": true}
{"trialID": {"id": 66, "triggers": [129, 195], "duration": 0.02}, "hemifield": "right", "block": 4, "sequence_number": 67, "delay": 7.378739585335998, "tones": [{"toneNumber": 79, "time": 534.5612007000018, "prePupil": [0, 534.5496552000113], "postPupil": [0, 534.611266700027]}, {"toneNumber": 80, "time": 537.4842079000082, "prePupil": [0, 537.472201800003], "postPupil": [0, 537.5342777000042]}], "extrakeypresses": [], "coordinates": [1.5359908787210448, -5.252198608495009], "preSpotPupil": [0, 538.2819951000274], "startTime": 538.3026501000277, "postSpotPupil": [0, 538.7233851000201], "rt": 0.3829711000144016, "response_key": "4"}
{"trialID": {"id": 67, "triggers": [129, 196], "duration": 0.02}, "hemifield": "right", "block": 4, "sequence_number": 68, "delay": 2.5015426674873575, "tones": [], "extrakeypresses": [], "coordinates": [14.956182575086892, -2.420699320400548], "preSpotPupil": [0, 542.287339500006], "startTime": 542.3181121000089, "postSpotPupil": [0, 543.0055849000055], "rt": 0.6464901999861468, "response_key": "4", "late": true}
{"trialID": {"id": 68, "triggers": [129, 197], "duration": 0.02}, "hemifield": "right", "block": 4, "sequence_number": 69, "delay": 8.520060247618218, "tones": [{"toneNumber": 81, "time": 546.4508647000184, "prePupil": [0, 546.4377307000104], "postPupil": [0, 546.5009179000044]}, {"toneNumber": 82, "time": 549.365343500016, "prePupil": [0, 549.3535648000252], "postPupil": [0, 549.4154061000154]}], "extrakeypresses": [546.2204909000138], "coordinates": [10.801057648716894, 1.5979293160811423], "preSpotPupil": [0, 552.5718588000163], "startTime": 552.5997142000124, "postSpotPupil": [0, 553.1695749000064], "rt": 0.5372064999828581, "response_key": "4", "late": true}
{"trialID": {"id": 69, "triggers": [129, 198], "duration": 0.02}, "hemifield": "right", "block": 4, "sequence_number": 70, "delay": 4.7890534270516945, "tones": [{"toneNumber": 83, "time": 555.9124802000006, "prePupil": [0, 555.9004955000128], "postPupil": [0, 555.9625873000186]}, {"toneNumber": 84, "time": 558.2339515000058, "prePupil": [0, 558.2211605000193], "postPupil": [0, 558.2840600000054]}], "extrakeypresses": [], "coordinates": [7.209374388112215, 1.5194640487944149], "preSpotPupil": [0, 559.0058615000162], "startTime": 559.0303609000111, "postSpotPupil": [0, 559.4681541000027], "rt": 0.39733089998480864, "response_key": "4"}
{"trialID": {"id": 70, "triggers": [129, 199], "duration": 0.02}, "hemifield": "right", "block": 4, "sequence_number": 71, "delay": 8.042066446875683, "tones": [{"toneNumber": 85, "time": 562.977019700018, "prePupil": [0, 562.9648674000055], "postPupil": [0, 563.0271085000131]}, {"toneNumber": 86, "time": 564.7552069000085, "prePupil": [0, 564.7430378000136], "postPupil": [0, 564.8052862000186]}], "extrakeypresses": [], "coordinates": [5.096671413797036, -8.317897547445932], "preSpotPupil": [0, 568.5714561000059], "startTime": 568.5948442000081, "postSpotPupil": [0, 569.0492579000129], "rt": 0.41169010000885464, "response_key": "4"}
{"trialID": {"id": 71, "triggers": [129, 200], "duration": 0.02}, "hemifield": "left", "block": 5, "sequence_number": 72, "delay": 2.071798127717628, "tones": [], "extrakeypresses": [], "coordinates": [-15.242107534926374, 3.410585975873378], "preSpotPupil": [0, 575.2403867000248], "startTime": 575.2593064000248, "postSpotPupil": [0, 576.2489065000264], "missed": true}
{"trialID": {"id": 72, "triggers": [129, 201], "duration": 0.02}, "hemifield": "left", "block": 5, "sequence_number": 73, "delay": 6.322403359974489, "tones": [{"toneNumber": 87, "time": 578.3758603000024, "prePupil": [0, 578.3640802000009], "postPupil": [0, 578.4259269000031]}], "extrakeypresses": [], "coordinates": [-2.496816842014967, -6.920001819836033], "preSpotPupil": [0, 583.1026983000047], "startTime": 583.1235615000187, "postSpotPupil": [0, 583.6622621000279], "rt": 0.5070297000056598, "response_key": "4", "late": true}
{"trialID": {"id": 73, "triggers": [129, 202], "duration": 0.02}, "hemifield": "left", "block": 5, "sequence_number": 74, "delay": 4.816109132537083, "tones": [{"toneNumber": 88, "time": 587.4875485000084, "prePupil": [0, 587.4752929000242], "postPupil": [0, 587.537622200005]}], "extrakeypresses": [], "coordinates": [-4.831668998657051, 2.3654868788756858], "preSpotPupil": [0, 589.5238159], "startTime": 589.5566720000061, "postSpotPupil": [0, 589.9274847000197], "rt": 0.32615229999646544, "response_key": "4"}
{"trialID": {"id": 74, "triggers": [129, 203], "duration": 0.02}, "hemifield": "left", "block": 5, "sequence_number": 75, "delay": 4.490370122556574, "tones": [{"toneNumber": 89, "time": 594.7209612000152, "prePupil": [0, 594.7074043000175], "postPupil": [0, 594.7710579000122]}], "extrakeypresses": [], "coordinates": [-12.98419978466921, -8.610853150859265], "preSpotPupil": [0, 595.4799495000043], "startTime": 595.5056865000224, "postSpotPupil": [0, 596.493996300007], "missed": true}
{"trialID": {"id": 75, "triggers": [129, 204], "duration": 0.02}, "hemifield": "left", "block": 5, "sequence_number": 76, "delay": 4.1369064690199915, "tones": [{"toneNumber": 90, "time": 598.089969600027, "prePupil": [0, 598.078301600006], "postPupil": [0, 598.1400314000202]}], "extrakeypresses": [], "coordinates": [-7.816777674998244, 0.3580633461840055], "preSpotPupil": [0, 601.1602509000222], "startTime": 601.1862866000156, "postSpotPupil": [0, 601.574565900024], "rt": 0.3472957000194583, "response_key": "4"}
{"trialID": {"id": 76, "triggers": [129, 205], "duration": 0.02}, "hemifield": "left", "block": 5, "sequence_number": 77, "delay": 8.703433927723578, "tones": [{"toneNumber": 91, "time": 606.7248890000046, "prePupil": [0, 606.7134895000199], "postPupil": [0, 606.7749618000234]}, {"toneNumber": 92, "time": 609.4547263000277, "prePupil": [0, 609.4429462000262], "postPupil": [0, 609.5047974000045]}], "extrakeypresses": [], "coordinates": [-11.851052236117365, 8.600476597877675], "preSpotPupil": [0, 611.3392332000076], "startTime": 611.3697513000225, "postSpotPupil": [0, 612.3408302000025], "missed": true}
{"trialID": {"id": 77, "triggers": [129, 206], "duration": 0.02}, "hemifield": "left", "block": 5, "sequence_number": 78, "delay": 8.074268246737091, "tones": [{"toneNumber": 93, "time": 615.9431187000009, "prePupil": [0, 615.931267100008], "postPupil": [0, 615.9931762000197]}, {"toneNumber": 94, "time": 619.6572477000009, "prePupil": [0, 619.645342200005], "postPupil": [0, 619.7074060000014]}], "extrakeypresses": [], "coordinates": [-6.503718406233254, -6.722678912593362], "preSpotPupil": [0, 620.9454106000194], "startTime": 620.9638637000171, "postSpotPupil": [0, 621.3862548000179], "rt": 0.37911199999507517, "response_key": "4"}
{"trialID": {"id": 78, "triggers": [129, 207], "duration": 0.02}, "hemifield": "left", "block": 5, "sequence_number": 79, "delay": 5.514068630513609, "tones": [{"toneNumber": 95, "time": 626.9427497000142, "prePupil": [0, 626.9310160000168], "postPupil": [0, 626.9928220000002]}], "extrakeypresses": [], "coordinates": [-6.777756134609556, -0.49831207553867785], "preSpotPupil": [0, 627.9654393000237], "startTime": 627.9977375000017, "postSpotPupil": [0, 628.4014526000246], "rt": 0.3629215999972075, "response_key": "4"}
{"trialID": {"id": 79, "triggers": [129, 208], "duration": 0.02}, "hemifield": "left", "block": 5, "sequence_number": 80, "delay": 6.461552357512665, "tones": [{"toneNumber": 96, "time": 633.6194468000031, "prePupil": [0, 633.6073099000205], "postPupil": [0, 633.6695095000032]}], "extrakeypresses": [], "coordinates": [-4.170159802000811, -0.2554202284357743], "preSpotPupil": [0, 635.9250127000269], "startTime": 635.9468104000262, "postSpotPupil": [0, 636.4161336000252], "rt": 0.437347500002943, "response_key": "4"}
{"trialID": {"id": 80, "triggers": [129, 209], "duration": 0.02}, "hemifield": "left", "block": 5, "sequence_number": 81, "delay": 5.149307558959215, "tones": [{"toneNumber": 97, "time": 640.2183847000124, "prePupil": [0, 640.2057602000132], "postPupil": [0, 640.268483700027]}], "extrakeypresses": [], "coordinates": [-1.2471903883349373, -5.363721137091561], "preSpotPupil": [0, 642.626968000026], "startTime": 642.64283170001, "postSpotPupil": [0, 643.147730800003], "rt": 0.46291789997485466, "response_key": "4"}
{"trialID": {"id": 81, "triggers": [129, 210], "duration": 0.02}, "hemifield": "left", "block": 5, "sequence_number": 82, "delay": 6.313999459192081, "tones": [{"toneNumber": 98, "time": 648.7118217000098, "prePupil": [0, 648.6998328000191], "postPupil": [0, 648.7618818000192]}], "extrakeypresses": [], "coordinates": [-15.42791598779894, -2.3002001000297962], "preSpotPupil": [0, 650.5233516000153], "startTime": 650.5404800000251, "postSpotPupil": [0, 651.2625497000117], "rt": 0.6751364000083413, "response_key": "4", "late": true}
{"trialID": {"id": 82, "triggers": [129, 211], "duration": 0.02}, "hemifield": "left", "block": 5, "sequence_number": 83, "delay": 4.749430334488544, "tones": [{"toneNumber": 99, "time": 655.684133600007, "prePupil": [0, 655.6718930000206], "postPupil": [0, 655.7341907000227]}], "extrakeypresses": [], "coordinates": [-9.101283020264413, 4.672667545371036], "preSpotPupil": [0, 657.0561832000094], "startTime": 657.0721888000262, "postSpotPupil": [0, 657.5271547000157], "rt": 0.41762049999670126, "response_key": "4"}
{"trialID": {"id": 83, "triggers": [129, 212], "duration": 0.02}, "hemifield": "left", "block": 5, "sequence_number": 84, "delay": 3.5798669758725667, "tones": [{"toneNumber": 100, "time": 660.5782391000248, "prePupil": [0, 660.5659617000201], "postPupil": [0, 660.6282989000028]}], "extrakeypresses": [], "coordinates": [-3.4503610674744944, -6.184823575960623], "preSpotPupil": [0, 662.169985000015], "startTime": 662.1881747000152, "postSpotPupil": [0, 662.5930229000223], "rt": 0.3655672000022605, "response_key": "4"}
{"trialID": {"id": 84, "triggers": [129, 213], "duration": 0.02}, "hemifield": "left", "block": 5, "sequence_number": 85, "delay": 2.9761863364279746, "tones": [{"toneNumber": 101, "time": 665.6495922000031, "prePupil": [0, 665.6371033000178], "postPupil": [0, 665.6996451000159]}], "extrakeypresses": [], "coordinates": [-10.380026967010153, -8.206938069202952], "preSpotPupil": [0, 666.6339704999991], "startTime": 666.6541177000036, "postSpotPupil": [0, 667.1422285000153], "rt": 0.4547646999999415, "response_key": "4"}
{"trialID": {"id": 85, "triggers": [129, 214], "duration": 0.02}, "hemifield": "left", "block": 5, "sequence_number": 86, "delay": 2.6128460069955777, "tones": [], "extrakeypresses": [], "coordinates": [-13.302612021822103, -7.0215488679200675], "preSpotPupil": [0, 670.8180944000196], "startTime": 670.8550183000043, "postSpotPupil": [0, 671.3576377000136], "rt": 0.4666373000072781, "response_key": "4", "late": true}
{"trialID": {"id": 86, "triggers": [129, 215], "duration": 0.02}, "hemifield": "left", "block": 5, "sequence_number": 87, "delay": 1.800595402254392, "tones": [], "extrakeypresses": [], "coordinates": [-12.89244229232009, -5.5028684093365685], "preSpotPupil": [0, 674.2210677000112], "startTime": 674.2526281000173, "postSpotPupil": [0, 674.6736682000046], "rt": 0.3880057000205852, "response_key": "4"}
{"trialID": {"id": 87, "triggers": [129, 216], "duration": 0.02}, "hemifield": "left", "block": 5, "sequence_number": 88, "delay": 6.796645151641899, "tones": [{"toneNumber": 102, "time": 678.1011681000236, "prePupil": [0, 678.0888036000251], "postPupil": [0, 678.1512861000083]}], "extrakeypresses": [], "coordinates": [-4.635208500313665, -0.2053616089475181], "preSpotPupil": [0, 682.5321444000001], "startTime": 682.5506473000278, "postSpotPupil": [0, 683.0213258000149], "rt": 0.42803129999083467, "response_key": "4"}
{"trialID": {"id": 88, "triggers": [129, 217], "duration": 0.02}, "hemifield": "left", "block": 5, "sequence_number": 89, "delay": 7.758197875207323, "tones": [{"toneNumber": 103, "time": 688.5419963000168, "prePupil": [0, 688.5301685000013], "postPupil": [0, 688.5920904000232]}, {"toneNumber": 104, "time": 690.8433070000028, "prePupil": [0, 690.8314698000031], "postPupil": [0, 690.893404100003]}], "extrakeypresses": [], "coordinates": [-13.398893758897191, 5.673498208265936], "preSpotPupil": [0, 691.8423367000069], "startTime": 691.8647195000085, "postSpotPupil": [0, 692.3857819000259], "rt": 0.4854219000262674, "response_key": "4", "late": true}
{"trialID": {"id": 89, "triggers": [129, 218], "duration": 0.02}, "hemifield": "right", "block": 6, "sequence_number": 90, "delay": 8.069550593160027, "tones": [{"toneNumber": 105, "time": 698.6851629000157, "prePupil": [0, 698.6732900000061], "postPupil": [0, 698.7352194000268]}, {"toneNumber": 106, "time": 702.9824716000003, "prePupil": [0, 702.9692358000029], "postPupil": [0, 703.0325520000188]}], "extrakeypresses": [], "coordinates": [7.073159610007433, 2.012077617078985], "preSpotPupil": [0, 704.573947100027], "startTime": 704.5946416000079, "postSpotPupil": [0, 704.9826505000237], "rt": 0.34786870001698844, "response_key": "4"}
{"trialID": {"id": 90, "triggers": [129, 219], "duration": 0.02}, "hemifield": "right", "block": 6, "sequence_number": 91, "delay": 4.7512483250665145, "tones": [{"toneNumber": 107, "time": 709.8254468000086, "prePupil": [0, 709.8132451999991], "postPupil": [0, 709.8755288000102]}], "extrakeypresses": [], "coordinates": [5.549681838874359, -7.335194317363254], "preSpotPupil": [0, 710.7939077000192], "startTime": 710.8089818000153, "postSpotPupil": [0, 711.3977938000171], "rt": 0.5450473999953829, "response_key": "4", "late": true}
{"trialID": {"id": 91, "triggers": [129, 220], "duration": 0.02}, "hemifield": "right", "block": 6, "sequence_number": 92, "delay": 3.920969226419367, "tones": [], "extrakeypresses": [], "coordinates": [3.7642711768021706, 7.937404351920803], "preSpotPupil": [0, 716.3652897000138], "startTime": 716.3914841000224, "postSpotPupil": [0, 717.3817464000022], "missed": true}
{"trialID": {"id": 92, "triggers": [129, 221], "duration": 0.02}, "hemifield": "right", "block": 6, "sequence_number": 93, "delay": 4.345267105172764, "tones": [{"toneNumber": 108, "time": 719.7944903000025, "prePupil": [0, 719.7824583000038], "postPupil": [0, 719.8445631000213]}], "extrakeypresses": [], "coordinates": [10.496902057229903, -2.2891767285003954], "preSpotPupil": [0, 722.2552918000147], "startTime": 722.272609800013, "postSpotPupil": [0, 722.6952090000268], "rt": 0.38903929997468367, "response_key": "4"}
{"trialID": {"id": 93, "triggers": [129, 222], "duration": 0.02}, "hemifield": "right", "block": 6, "sequence_number": 94, "delay": 9.41144530691842, "tones": [{"toneNumber": 109, "time": 725.795557800011, "prePupil": [0, 725.7841314000252], "postPupil": [0, 725.8456209000142]}, {"toneNumber": 110, "time": 727.9035022000025, "prePupil": [0, 727.8914717000152], "postPupil": [0, 727.9536415000039]}, {"toneNumber": 111, "time": 730.1770088000048, "prePupil": [0, 730.1651801000116], "postPupil": [0, 730.2270729000156]}], "extrakeypresses": [], "coordinates": [8.558480882568684, -2.191135285983896], "preSpotPupil": [0, 733.1689216000086], "startTime": 733.1866580000205, "postSpotPupil": [0, 733.6425060000038], "rt": 0.423017199995229, "response_key": "4"}
{"trialID": {"id": 94, "triggers": [129, 223], "duration": 0.02}, "hemifield": "right", "block": 6, "sequence_number": 95, "delay": 2.5245205349529893, "tones": [], "extrakeypresses": [], "coordinates": [12.688263628160149, -2.376378131102049], "preSpotPupil": [0, 737.2295836000121], "startTime": 737.2560413000174, "postSpotPupil": [0, 738.2429221000057], "missed": true}
{"trialID": {"id": 95, "triggers": [129, 224], "duration": 0.02}, "hemifield": "right", "block": 6, "sequence_number": 96, "delay": 1.9551380207769222, "tones": [], "extrakeypresses": [], "coordinates": [1.205751481949246, -0.48685136659504025], "preSpotPupil": [0, 740.7286036000005], "startTime": 740.7515231000143, "postSpotPupil": [0, 741.1739337000181], "rt": 0.3822097999800462, "response_key": "4"}
{"trialID": {"id": 96, "triggers": [129, 225], "duration": 0.02}, "hemifield": "right", "block": 6, "sequence_number": 97, "delay": 4.4968928774621, "tones": [], "extrakeypresses": [], "coordinates": [5.8418377855988375, -1.2669798289810945], "preSpotPupil": [0, 746.7326554000028], "startTime": 746.7509049000219, "postSpotPupil": [0, 747.1723973000189], "rt": 0.3877599000115879, "response_key": "4"}
{"trialID": {"id": 97, "triggers": [129, 226], "duration": 0.02}, "hemifield": "right", "block": 6, "sequence_number": 98, "delay": 5.982284472516899, "tones": [{"toneNumber": 112, "time": 751.6002910000097, "prePupil": [0, 751.5873503000184], "postPupil": [0, 751.6503503000131]}], "extrakeypresses": [], "coordinates": [10.803156014956453, -5.2013599503790005], "preSpotPupil": [0, 754.2154640000081], "startTime": 754.2327126000018, "postSpotPupil": [0, 754.8703278000175], "rt": 0.6042342000000644, "response_key": "4", "late": true}
{"trialID": {"id": 98, "triggers": [129, 227], "duration": 0.02}, "hemifield": "right", "block": 6, "sequence_number": 99, "delay": 7.876776298267444, "tones": [{"toneNumber": 113, "time": 757.1082847000216, "prePupil": [0, 757.0956809000054], "postPupil": [0, 757.158382100024]}, {"toneNumber": 114, "time": 761.6816206000221, "prePupil": [0, 761.6687431000173], "postPupil": [0, 761.7317304000026]}], "extrakeypresses": [], "coordinates": [6.705758922755013, -4.272687822306059], "preSpotPupil": [0, 763.7926524000068], "startTime": 763.8137102000182, "postSpotPupil": [0, 764.1848027000087], "rt": 0.3250343999825418, "response_key": "4"}
{"trialID": {"id": 99, "triggers": [129, 228], "duration": 0.02}, "hemifield": "right", "block": 6, "sequence_number": 100, "delay": 7.208578824758696, "tones": [{"toneNumber": 115, "time": 768.2229003000248, "prePupil": [0, 768.2114001000009], "postPupil": [0, 768.2729808000149]}], "extrakeypresses": [], "coordinates": [15.368151778919577, -2.9747576495559134], "preSpotPupil": [0, 772.4550390000222], "startTime": 772.4795669000014, "postSpotPupil": [0, 773.467759000021], "missed": true}
{"trialID": {"id": 100, "triggers": [129, 229], "duration": 0.02}, "hemifield": "right", "block": 6, "sequence_number": 101, "delay": 6.129815216427425, "tones": [{"toneNumber": 116, "time": 778.4303460000083, "prePupil": [0, 778.4181108000048], "postPupil": [0, 778.4804527000233]}], "extrakeypresses": [], "coordinates": [4.968876049446088, -7.9146983784485965], "preSpotPupil": [0, 780.1246707000246], "startTime": 780.141626800003, "postSpotPupil": [0, 780.5310699000256], "rt": 0.34517139999661595, "response_key": "4"}
{"trialID": {"id": 101, "triggers": [129, 230], "duration": 0.02}, "hemifield": "right", "block": 6, "sequence_number": 102, "delay": 4.470680535358097, "tones": [{"toneNumber": 117, "time": 784.94327660001, "prePupil": [0, 784.9311217000068], "postPupil": [0, 784.9934034000034]}], "extrakeypresses": [], "coordinates": [15.735979546488782, -3.506267611973785], "preSpotPupil": [0, 786.0657547000155], "startTime": 786.0906285000092, "postSpotPupil": [0, 787.0811550000217], "missed": true}
{"trialID": {"id": 102, "triggers": [129, 231], "duration": 0.02}, "hemifield": "right", "block": 6, "sequence_number": 103, "delay": 3.7673806528344613, "tones": [], "extrakeypresses": [], "coordinates": [4.898738734693914, 7.140231369566752], "preSpotPupil": [0, 791.3795061000274], "startTime": 791.4060549000278, "postSpotPupil": [0, 791.7947376000229], "rt": 0.3517147999955341, "response_key": "4"}
{"trialID": {"id": 103, "triggers": [129, 232], "duration": 0.02}, "hemifield": "right", "block": 6, "sequence_number": 104, "delay": 6.330420368704912, "tones": [{"toneNumber": 118, "time": 794.5969806000066, "prePupil": [0, 794.5841867999989], "postPupil": [0, 794.6470802000258]}, {"toneNumber": 119, "time": 797.2940008000005, "prePupil": [0, 797.2811860000074], "postPupil": [0, 797.3440736000193]}], "extrakeypresses": [], "coordinates": [13.280233881377233, 6.4835648235874075], "preSpotPupil": [0, 799.1854027000081], "startTime": 799.2043493000092, "postSpotPupil": [0, 799.8929945999989], "rt": 0.6435122999828309, "response_key": "4", "late": true}
{"trialID": {"id": 104, "triggers": [129, 233], "duration": 0.02}, "hemifield": "right", "block": 6, "sequence_number": 105, "delay": 3.24741174704549, "tones": [{"toneNumber": 120, "time": 803.3558501000225, "prePupil": [0, 803.3443389000022], "postPupil": [0, 803.4059441999998]}], "extrakeypresses": [], "coordinates": [6.07532224746335, 6.369392616420102], "preSpotPupil": [0, 804.1888952000008], "startTime": 804.2217437000072, "postSpotPupil": [0, 804.6417185000028], "rt": 0.3815160999947693, "response_key": "4"}
{"trialID": {"id": 105, "triggers": [129, 234], "duration": 0.02}, "hemifield": "right", "block": 6, "sequence_number": 106, "delay": 4.279480820887489, "tones": [{"toneNumber": 121, "time": 807.0110477000126, "prePupil": [0, 806.9992524000118], "postPupil": [0, 807.0611440000066]}], "extrakeypresses": [], "coordinates": [13.289204277080929, 0.08905627006411798], "preSpotPupil": [0, 809.9834324000112], "startTime": 810.0024253000156, "postSpotPupil": [0, 810.6237975000113], "rt": 0.5853177000244614, "response_key": "4", "late": true}
{"trialID": {"id": 106, "triggers": [129, 235], "duration": 0.02}, "hemifield": "right", "block": 6, "sequence_number": 107, "delay": 8.531833549854426, "tones": [{"toneNumber": 122, "time": 815.0709620000271, "prePupil": [0, 815.0587803000235], "postPupil": [0, 815.121106400009]}, {"toneNumber": 123, "time": 819.0694809000124, "prePupil": [0, 819.0565122000116], "postPupil": [0, 819.1195680000237]}], "extrakeypresses": [], "coordinates": [15.695791692534067, 4.436935791746388], "preSpotPupil": [0, 820.2014202999999], "startTime": 820.2344130000274, "postSpotPupil": [0, 820.7546963000204], "rt": 0.48340729999472387, "response_key": "4", "late": true}
