{"trialID": {"id": 0, "triggers": [192], "duration": 0.01}, "hemifield": "right", "block": 1, "sequence_number": 1, "delay": 2.58883796911483, "tones": [], "extrakeypresses": [68.32676369999899], "coordinates": [4.192749470258572, -1.6202838451266883], "preSpotPupil": [0, 71.36544969999886], "startTime": 71.39682519999951, "postSpotPupil": [0, 71.90137249999862], "rt": 0.461618900000758, "response_key": "4", "late": true}
{"trialID": {"id": 1, "triggers": [193], "duration": 0.01}, "hemifield": "right", "block": 1, "sequence_number": 2, "delay": 8.066931037249807, "tones": [{"toneNumber": 0, "time": 75.36672799999906, "prePupil": [0, 75.35416739999891], "postPupil": [0, 75.41685879999932]}, {"toneNumber": 1, "time": 79.68769089999842, "prePupil": [0, 79.67569240000012], "postPupil": [0, 79.73776579999867]}], "extrakeypresses": [], "coordinates": [15.41615036679975, 7.389760725367724], "preSpotPupil": [0, 81.01565630000005], "startTime": 81.04747820000011, "postSpotPupil": [0, 82.01752829999896], "missed": true}
{"trialID": {"id": 2, "triggers": [194], "duration": 0.01}, "hemifield": "right", "block": 1, "sequence_number": 3, "delay": 4.590908392511288, "tones": [{"toneNumber": 2, "time": 85.96364369999901, "prePupil": [0, 85.95184509999854], "postPupil": [0, 86.01372269999956]}], "extrakeypresses": [], "coordinates": [13.168557172730225, 0.010603733638873791], "preSpotPupil": [0, 87.13520049999897], "startTime": 87.15872109999873, "postSpotPupil": [0, 87.63090659999943], "rt": 0.4379903999997623, "response_key": "4"}
{"trialID": {"id": 3, "triggers": [195], "duration": 0.01}, "hemifield": "right", "block": 1, "sequence_number": 4, "delay": 7.392207126266691, "tones": [{"toneNumber": 3, "time": 90.82843999999932, "prePupil": [0, 90.81677839999975], "postPupil": [0, 90.87851249999949]}, {"toneNumber": 4, "time": 94.40850119999959, "prePupil": [0, 94.39631949999966], "postPupil": [0, 94.45856839999942]}], "extrakeypresses": [], "coordinates": [12.119186613859329, 4.576027772483419], "preSpotPupil": [0, 96.07845999999881], "startTime": 96.10758539999915, "postSpotPupil": [0, 97.08053099999961], "missed": true}
{"trialID": {"id": 4, "triggers": [196], "duration": 0.01}, "hemifield": "right", "block": 1, "sequence_number": 5, "delay": 6.4237165059162775, "tones": [{"toneNumber": 5, "time": 100.99130559999867, "prePupil": [0, 100.97904190000008], "postPupil": [0, 101.04138689999854]}], "extrakeypresses": [], "coordinates": [6.0723708657459845, 2.914703449979255], "preSpotPupil": [0, 104.02181689999998], "startTime": 104.03784839999935, "postSpotPupil": [0, 104.77690660000007], "rt": 0.7014380999989953, "response_key": "4", "late": true}
{"trialID": {"id": 5, "triggers": [197], "duration": 0.01}, "hemifield": "right", "block": 1, "sequence_number": 6, "delay": 3.883584269646539, "tones": [{"toneNumber": 6, "time": 107.65884310000001, "prePupil": [0, 107.64605819999997], "postPupil": [0, 107.70891909999955]}], "extrakeypresses": [], "coordinates": [12.988627626793512, 7.21597486490964], "preSpotPupil": [0, 109.69826269999976], "startTime": 109.71980239999903, "postSpotPupil": [0, 110.7109879999989], "missed": true}
{"trialID": {"id": 6, "triggers": [198], "duration": 0.01}, "hemifield": "right", "block": 1, "sequence_number": 7, "delay": 6.984350335443205, "tones": [{"toneNumber": 7, "time": 114.75556399999914, "prePupil": [0, 114.74280129999897], "postPupil": [0, 114.80563259999872]}, {"toneNumber": 8, "time": 116.77313779999895, "prePupil": [0, 116.76073369999904], "postPupil": [0, 116.82325559999845]}], "extrakeypresses": [], "coordinates": [13.24826462419997, -4.790074381895814], "preSpotPupil": [0, 118.2137315], "startTime": 118.2350951999997, "postSpotPupil": [0, 118.82348549999915], "rt": 0.5522185999998328, "response_key": "4", "late": true}
{"trialID": {"id": 7, "triggers": [199], "duration": 0.01}, "hemifield": "right", "block": 1, "sequence_number": 8, "delay": 5.697011557412268, "tones": [{"toneNumber": 9, "time": 123.26066929999979, "prePupil": [0, 123.2479373999995], "postPupil": [0, 123.31074349999835]}], "extrakeypresses": [], "coordinates": [6.512262697674668, -3.0678545514454116], "preSpotPupil": [0, 125.55460019999919], "startTime": 125.5831975000001, "postSpotPupil": [0, 125.97156659999928], "rt": 0.3411263999987568, "response_key": "4"}
{"trialID": {"id": 8, "triggers": [200], "duration": 0.01}, "hemifield": "right", "block": 1, "sequence_number": 9, "delay": 5.210542483377795, "tones": [{"toneNumber": 10, "time": 128.68660180000006, "prePupil": [0, 128.67399709999881], "postPupil": [0, 128.73667129999922]}, {"toneNumber": 11, "time": 130.25312329999906, "prePupil": [0, 130.2413964999996], "postPupil": [0, 130.30320779999965]}], "extrakeypresses": [], "coordinates": [11.00668277168513, 6.362936485729842], "preSpotPupil": [0, 132.23142129999906], "startTime": 132.24863239999831, "postSpotPupil": [0, 132.75341630000003], "rt": 0.46116650000112713, "response_key": "4"}
{"trialID": {"id": 9, "triggers": [201], "duration": 0.01}, "hemifield": "right", "block": 1, "sequence_number": 10, "delay": 4.90198653753761, "tones": [{"toneNumber": 12, "time": 137.82001629999831, "prePupil": [0, 137.80830129999958], "postPupil": [0, 137.87009689999832]}], "extrakeypresses": [], "coordinates": [10.851691780670276, -7.495828901240069], "preSpotPupil": [0, 138.70631259999936], "startTime": 138.73029580000002, "postSpotPupil": [0, 139.3184831999988], "rt": 0.5529960000003484, "response_key": "4", "late": true}
{"trialID": {"id": 10, "triggers": [202], "duration": 0.01}, "hemifield": "right", "block": 1, "sequence_number": 11, "delay": 8.931315785673426, "tones": [{"toneNumber": 13, "time": 143.78144780000002, "prePupil": [0, 143.76975729999867], "postPupil": [0, 143.83150989999922]}, {"toneNumber": 14, "time": 148.4873545999999, "prePupil": [0, 148.47507289999885], "postPupil": [0, 148.5374385999985]}], "extrakeypresses": [], "coordinates": [7.980906611935146, 8.388848940723053], "preSpotPupil": [0, 149.28125739999996], "startTime": 149.3116231999993, "postSpotPupil": [0, 150.28419389999908], "missed": true}
{"trialID": {"id": 11, "triggers": [203], "duration": 0.01}, "hemifield": "right", "block": 1, "sequence_number": 12, "delay": 8.419007868562273, "tones": [{"toneNumber": 15, "time": 152.88585469999998, "prePupil": [0, 152.87303839999913], "postPupil": [0, 152.93597339999906]}, {"toneNumber": 16, "time": 154.8882469, "prePupil": [0, 154.8761203999984], "postPupil": [0, 154.93831209999917]}], "extrakeypresses": [], "coordinates": [13.462035363922027, -1.151541341943041], "preSpotPupil": [0, 159.22025719999874], "startTime": 159.24131229999875, "postSpotPupil": [0, 160.2315982], "missed": true}
{"trialID": {"id": 12, "triggers": [204], "duration": 0.01}, "hemifield": "right", "block": 1, "sequence_number": 13, "delay": 7.850470662133109, "tones": [{"toneNumber": 17, "time": 165.15528149999955, "prePupil": [0, 165.14250399999946], "postPupil": [0, 165.205393799999]}], "extrakeypresses": [], "coordinates": [3.651592704087495, -2.1912261885213526], "preSpotPupil": [0, 168.60104319999846], "startTime": 168.62207379999927, "postSpotPupil": [0, 168.97856049999973], "rt": 0.31229499999972177, "response_key": "4"}
{"trialID": {"id": 13, "triggers": [205], "duration": 0.01}, "hemifield": "right", "block": 1, "sequence_number": 14, "delay": 8.41085641306116, "tones": [{"toneNumber": 18, "time": 173.5378697999986, "prePupil": [0, 173.5259086999995], "postPupil": [0, 173.5879363999993]}], "extrakeypresses": [], "coordinates": [1.6359456059959316, -6.090674626016504], "preSpotPupil": [0, 178.4383385000001], "startTime": 178.45341479999843, "postSpotPupil": [0, 179.1253201999989], "rt": 0.6249547000006714, "response_key": "4", "late": true}
{"trialID": {"id": 14, "triggers": [206], "duration": 0.01}, "hemifield": "right", "block": 1, "sequence_number": 15, "delay": 4.360381303097148, "tones": [{"toneNumber": 19, "time": 181.52762389999953, "prePupil": [0, 181.51589839999906], "postPupil": [0, 181.5776909999986]}], "extrakeypresses": [], "coordinates": [2.1213281288818386, -8.488715185614314], "preSpotPupil": [0, 184.52008509999905], "startTime": 184.55331699999988, "postSpotPupil": [0, 185.02389459999904], "rt": 0.4340142000000924, "response_key": "4"}
{"trialID": {"id": 15, "triggers": [207], "duration": 0.01}, "hemifield": "right", "block": 1, "sequence_number": 16, "delay": 4.537105210300994, "tones": [{"toneNumber": 20, "time": 187.99134609999965, "prePupil": [0, 187.97987929999908], "postPupil": [0, 188.04140349999943]}], "extrakeypresses": [], "coordinates": [10.254727394088748, 7.365659282731974], "preSpotPupil": [0, 190.61139729999923], "startTime": 190.6354502999984, "postSpotPupil": [0, 191.62444959999993], "missed": true}
{"trialID": {"id": 16, "triggers": [208], "duration": 0.01}, "hemifield": "left", "block": 2, "sequence_number": 17, "delay": 1.5650511257955309, "tones": [], "extrakeypresses": [], "coordinates": [-3.799067278921097, -1.998129462316487], "preSpotPupil": [0, 196.7785694999984], "startTime": 196.79949059999853, "postSpotPupil": [0, 197.30420369999956], "rt": 0.4640768000008393, "response_key": "4"}
{"trialID": {"id": 17, "triggers": [209], "duration": 0.01}, "hemifield": "left", "block": 2, "sequence_number": 18, "delay": 3.7221827892651325, "tones": [{"toneNumber": 21, "time": 200.11165699999947, "prePupil": [0, 200.09910390000005], "postPupil": [0, 200.16176919999998]}], "extrakeypresses": [], "coordinates": [-3.45105602483949, 6.549466927181166], "preSpotPupil": [0, 202.07690529999854], "startTime": 202.0977901999995, "postSpotPupil": [0, 202.51971619999858], "rt": 0.3877897000002122, "response_key": "4"}
{"trialID": {"id": 18, "triggers": [210], "duration": 0.01}, "hemifield": "left", "block": 2, "sequence_number": 19, "delay": 5.7859339071390385, "tones": [{"toneNumber": 22, "time": 206.78240319999895, "prePupil": [0, 206.77134579999984], "postPupil": [0, 206.83249179999984]}, {"toneNumber": 23, "time": 208.61386469999889, "prePupil": [0, 208.6018239999994], "postPupil": [0, 208.66396600000007]}], "extrakeypresses": [], "coordinates": [-9.967494850463698, -4.358250798885683], "preSpotPupil": [0, 209.35376389999874], "startTime": 209.38059919999978, "postSpotPupil": [0, 210.36964269999953], "missed": true}
{"trialID": {"id": 19, "triggers": [211], "duration": 0.01}, "hemifield": "left", "block": 2, "sequence_number": 20, "delay": 9.350213988902128, "tones": [{"toneNumber": 24, "time": 215.08106619999853, "prePupil": [0, 215.06836339999973], "postPupil": [0, 215.13115619999917]}, {"toneNumber": 25, "time": 216.6470720999987, "prePupil": [0, 216.635016799999], "postPupil": [0, 216.69715389999874]}], "extrakeypresses": [], "coordinates": [-8.44447582544134, 6.877252218936944], "preSpotPupil": [0, 220.24093899999934], "startTime": 220.26050739999846, "postSpotPupil": [0, 220.63203889999932], "rt": 0.33478029999969294, "response_key": "4"}
{"trialID": {"id": 20, "triggers": [212], "duration": 0.01}, "hemifield": "left", "block": 2, "sequence_number": 21, "delay": 3.8419846750936637, "tones": [], "extrakeypresses": [], "coordinates": [-8.733870238513619, -2.160962517509213], "preSpotPupil": [0, 225.5246565999987], "startTime": 225.54143029999977, "postSpotPupil": [0, 226.53187979999893], "missed": true}
{"trialID": {"id": 21, "triggers": [213], "duration": 0.01}, "hemifield": "left", "block": 2, "sequence_number": 22, "delay": 8.49762068265032, "tones": [{"toneNumber": 26, "time": 229.1691850999996, "prePupil": [0, 229.15687649999927], "postPupil": [0, 229.21925190000002]}, {"toneNumber": 27, "time": 231.52328339999985, "prePupil": [0, 231.51172919999954], "postPupil": [0, 231.5734027999988]}], "extrakeypresses": [], "coordinates": [-2.6577381091107135, 5.44686612087296], "preSpotPupil": [0, 235.5479022999989], "startTime": 235.57345589999932, "postSpotPupil": [0, 236.0446942999988], "rt": 0.4318849000010232, "response_key": "4"}
{"trialID": {"id": 22, "triggers": [214], "duration": 0.01}, "hemifield": "left", "block": 2, "sequence_number": 23, "delay": 2.376774978138614, "tones": [], "extrakeypresses": [], "coordinates": [-14.282104982476415, -2.0988888013843683], "preSpotPupil": [0, 239.47134529999857], "startTime": 239.48870029999853, "postSpotPupil": [0, 240.04379179999887], "rt": 0.5118181999987428, "response_key": "4", "late": true}
{"trialID": {"id": 23, "triggers": [215], "duration": 0.01}, "hemifield": "left", "block": 2, "sequence_number": 24, "delay": 6.342935421629185, "tones": [{"toneNumber": 28, "time": 242.20405839999876, "prePupil": [0, 242.19210359999852], "postPupil": [0, 242.25412789999973]}, {"toneNumber": 29, "time": 243.88169689999995, "prePupil": [0, 243.86976069999946], "postPupil": [0, 243.9317744]}], "extrakeypresses": [], "coordinates": [-3.5907220075653647, 4.564207380775384], "preSpotPupil": [0, 247.4223637999985], "startTime": 247.45752769999854, "postSpotPupil": [0, 247.85889849999876], "rt": 0.35486870000022464, "response_key": "4"}
{"trialID": {"id": 24, "triggers": [216], "duration": 0.01}, "hemifield": "left", "block": 2, "sequence_number": 25, "delay": 7.6925774168250065, "tones": [{"toneNumber": 30, "time": 252.46029959999942, "prePupil": [0, 252.44766459999846], "postPupil": [0, 252.51042899999993]}, {"toneNumber": 31, "time": 254.65545810000003, "prePupil": [0, 254.64380849999907], "postPupil": [0, 254.7055419999997]}], "extrakeypresses": [], "coordinates": [-6.317623575943815, -2.5627287402638146], "preSpotPupil": [0, 256.6017858999985], "startTime": 256.6177024999997, "postSpotPupil": [0, 257.0230686999985], "rt": 0.3716300999985833, "response_key": "4"}
{"trialID": {"id": 25, "triggers": [217], "duration": 0.01}, "hemifield": "left", "block": 2, "sequence_number": 26, "delay": 9.143444957207887, "tones": [{"toneNumber": 32, "time": 261.9030425000001, "prePupil": [0, 261.8910460999996], "postPupil": [0, 261.9531935999985]}, {"toneNumber": 33, "time": 265.55895710000004, "prePupil": [0, 265.54636179999943], "postPupil": [0, 265.60902799999894]}], "extrakeypresses": [], "coordinates": [-9.513763014422175, -0.5828176651152717], "preSpotPupil": [0, 267.2172546999991], "startTime": 267.24989370000003, "postSpotPupil": [0, 267.6372345], "rt": 0.34248849999858066, "response_key": "4"}
{"trialID": {"id": 26, "triggers": [218], "duration": 0.01}, "hemifield": "left", "block": 2, "sequence_number": 27, "delay": 4.381863558828674, "tones": [{"toneNumber": 34, "time": 270.29774259999976, "prePupil": [0, 270.2856854999991], "postPupil": [0, 270.3478252999994]}], "extrakeypresses": [], "coordinates": [-7.048300797317571, 6.258604177877226], "preSpotPupil": [0, 273.07115709999925], "startTime": 273.0986004999995, "postSpotPupil": [0, 273.55262819999916], "rt": 0.4158551999989868, "response_key": "4"}
{"trialID": {"id": 27, "triggers": [219], "duration": 0.01}, "hemifield": "left", "block": 2, "sequence_number": 28, "delay": 5.841301656026395, "tones": [{"toneNumber": 35, "time": 277.1792544, "prePupil": [0, 277.1671718999987], "postPupil": [0, 277.2293308999997]}, {"toneNumber": 36, "time": 279.28798149999966, "prePupil": [0, 279.27629479999996], "postPupil": [0, 279.33807929999966]}], "extrakeypresses": [], "coordinates": [-4.781310718358046, 8.551708943455816], "preSpotPupil": [0, 280.44489219999923], "startTime": 280.46175949999997, "postSpotPupil": [0, 281.45175070000005], "missed": true}
{"trialID": {"id": 28, "triggers": [220], "duration": 0.01}, "hemifield": "left", "block": 2, "sequence_number": 29, "delay": 6.4564925340689046, "tones": [{"toneNumber": 37, "time": 284.78121979999923, "prePupil": [0, 284.7689561999996], "postPupil": [0, 284.8312927999996]}], "extrakeypresses": [], "coordinates": [-4.111628681826295, -7.434611530707126], "preSpotPupil": [0, 288.4276272999996], "startTime": 288.4426552999994, "postSpotPupil": [0, 288.8319604999997], "rt": 0.34172450000005483, "response_key": "4"}
{"trialID": {"id": 29, "triggers": [221], "duration": 0.01}, "hemifield": "left", "block": 2, "sequence_number": 30, "delay": 7.708824429913584, "tones": [{"toneNumber": 38, "time": 291.2657614, "prePupil": [0, 291.2534653999992], "postPupil": [0, 291.3158309999999]}, {"toneNumber": 39, "time": 295.0093538000001, "prePupil": [0, 294.9972982999989], "postPupil": [0, 295.05943299999853]}], "extrakeypresses": [], "coordinates": [-6.3001939961852305, -7.811204260858134], "preSpotPupil": [0, 297.5904993999993], "startTime": 297.60816069999964, "postSpotPupil": [0, 297.9963403999991], "rt": 0.3432713000001968, "response_key": "4"}
{"trialID": {"id": 30, "triggers": [222], "duration": 0.01}, "hemifield": "left", "block": 2, "sequence_number": 31, "delay": 7.190042699806131, "tones": [{"toneNumber": 40, "time": 303.00393819999954, "prePupil": [0, 302.99204259999897], "postPupil": [0, 303.05401619999975]}], "extrakeypresses": [], "coordinates": [-1.6291483691915953, 3.6305375866115472], "preSpotPupil": [0, 306.23643699999957], "startTime": 306.2553005999998, "postSpotPupil": [0, 306.6441490999987], "rt": 0.3474855000004027, "response_key": "4"}
{"trialID": {"id": 31, "triggers": [223], "duration": 0.01}, "hemifield": "left", "block": 2, "sequence_number": 32, "delay": 8.80217085868458, "tones": [{"toneNumber": 41, "time": 310.7255460999986, "prePupil": [0, 310.712387399999], "postPupil": [0, 310.77560189999895]}, {"toneNumber": 42, "time": 314.6088112999987, "prePupil": [0, 314.59699120000005], "postPupil": [0, 314.65888730000006]}], "extrakeypresses": [], "coordinates": [-10.269724389953932, 8.49788129211902], "preSpotPupil": [0, 316.49690399999963], "startTime": 316.51976769999965, "postSpotPupil": [0, 317.5099236999995], "missed": true}
{"trialID": {"id": 32, "triggers": [224], "duration": 0.01}, "hemifield": "right", "block": 3, "sequence_number": 33, "delay": 2.810323169325687, "tones": [], "extrakeypresses": [320.59446429999844], "coordinates": [5.683867440685276, 6.702824425795416], "preSpotPupil": [0, 323.8902324999999], "startTime": 323.9183444999999, "postSpotPupil": [0, 324.8919387999995], "missed": true}
{"trialID": {"id": 33, "triggers": [225], "duration": 0.01}, "hemifield": "right", "block": 3, "sequence_number": 34, "delay": 5.711108275067849, "tones": [{"toneNumber": 43, "time": 326.8931227999983, "prePupil": [0, 326.88138459999936], "postPupil": [0, 326.94318380000004]}, {"toneNumber": 44, "time": 329.69548939999913, "prePupil": [0, 329.682851399999], "postPupil": [0, 329.7455452999984]}], "extrakeypresses": [], "coordinates": [11.270232423465641, 6.741660823028177], "preSpotPupil": [0, 331.12104849999923], "startTime": 331.14988619999895, "postSpotPupil": [0, 332.1240224999983], "missed": true}
{"trialID": {"id": 34, "triggers": [226], "duration": 0.01}, "hemifield": "right", "block": 3, "sequence_number": 35, "delay": 3.4156822529468354, "tones": [{"toneNumber": 45, "time": 334.6931995999985, "prePupil": [0, 334.6816842999997], "postPupil": [0, 334.74326159999873]}], "extrakeypresses": [], "coordinates": [2.976813411741079, 0.09075348680091189], "preSpotPupil": [0, 336.0591981999987], "startTime": 336.081387799999, "postSpotPupil": [0, 336.45360729999993], "rt": 0.32810150000113936, "response_key": "4"}
{"trialID": {"id": 35, "triggers": [227], "duration": 0.01}, "hemifield": "right", "block": 3, "sequence_number": 36, "delay": 5.541642895177272, "tones": [{"toneNumber": 46, "time": 340.3176268999996, "prePupil": [0, 340.3055723999987], "postPupil": [0, 340.3677391000001]}], "extrakeypresses": [], "coordinates": [4.787524524298236, 6.303087676064925], "preSpotPupil": [0, 343.04651979999835], "startTime": 343.0635566000001, "postSpotPupil": [0, 343.70188419999977], "rt": 0.5928602999993018, "response_key": "4", "late": true}
{"trialID": {"id": 36, "triggers": [228], "duration": 0.01}, "hemifield": "right", "block": 3, "sequence_number": 37, "delay": 6.837108266200377, "tones": [{"toneNumber": 47, "time": 347.0470760999997, "prePupil": [0, 347.0350230999993], "postPupil": [0, 347.09714969999914]}, {"toneNumber": 48, "time": 348.8275389999999, "prePupil": [0, 348.81572959999903], "postPupil": [0, 348.87761469999896]}], "extrakeypresses": [], "coordinates": [9.373810492906609, -6.437590614873821], "preSpotPupil": [0, 351.57323749999887], "startTime": 351.5956129999995, "postSpotPupil": [0, 351.61653849999857], "rt": -0.2620991999992839, "response_key": "4"}
{"trialID": {"id": 37, "triggers": [229], "duration": 0.01}, "hemifield": "right", "block": 3, "sequence_number": 38, "delay": 2.753156781259527, "tones": [], "extrakeypresses": [353.4764077], "coordinates": [15.909896278234166, -1.105526641869707], "preSpotPupil": [0, 355.5339155999991], "startTime": 355.56145859999924, "postSpotPupil": [0, 356.5508028999993], "missed": true}
{"trialID": {"id": 38, "triggers": [230], "duration": 0.01}, "hemifield": "right", "block": 3, "sequence_number": 39, "delay": 2.4057515988368374, "tones": [{"toneNumber": 49, "time": 358.6640931999991, "prePupil": [0, 358.6525378999995], "postPupil": [0, 358.7141539999993]}], "extrakeypresses": [], "coordinates": [4.488307452742863, 1.9684342687115741], "preSpotPupil": [0, 359.47638689999985], "startTime": 359.49155359999895, "postSpotPupil": [0, 359.94785799999954], "rt": 0.41084849999970174, "response_key": "4"}
{"trialID": {"id": 39, "triggers": [231], "duration": 0.01}, "hemifield": "right", "block": 3, "sequence_number": 40, "delay": 6.373480268925658, "tones": [{"toneNumber": 50, "time": 362.16508369999974, "prePupil": [0, 362.15274509999836], "postPupil": [0, 362.2153722999992]}, {"toneNumber": 51, "time": 364.6087884999997, "prePupil": [0, 364.5961492999995], "postPupil": [0, 364.6588548]}], "extrakeypresses": [], "coordinates": [10.287575659656484, -7.898806281227765], "preSpotPupil": [0, 367.3714586999995], "startTime": 367.3907746999994, "postSpotPupil": [0, 367.8962496999993], "rt": 0.4687224999997852, "response_key": "4"}
{"trialID": {"id": 40, "triggers": [232], "duration": 0.01}, "hemifield": "right", "block": 3, "sequence_number": 41, "delay": 3.8058495994131745, "tones": [], "extrakeypresses": [], "coordinates": [12.223735243131882, -0.6598140541106687], "preSpotPupil": [0, 372.7552941999984], "startTime": 372.7726894999996, "postSpotPupil": [0, 373.34494579999955], "rt": 0.5377748999999312, "response_key": "4", "late": true}
{"trialID": {"id": 41, "triggers": [233], "duration": 0.01}, "hemifield": "right", "block": 3, "sequence_number": 42, "delay": 3.6382865820072663, "tones": [{"toneNumber": 52, "time": 377.4316334999985, "prePupil": [0, 377.42054779999853], "postPupil": [0, 377.48170089999985]}], "extrakeypresses": [], "coordinates": [14.863214270357567, 3.0624818214848606], "preSpotPupil": [0, 378.0151670999985], "startTime": 378.0393573000001, "postSpotPupil": [0, 379.02875519999907], "missed": true}
{"trialID": {"id": 42, "triggers": [234], "duration": 0.01}, "hemifield": "right", "block": 3, "sequence_number": 43, "delay": 6.987734233921346, "tones": [{"toneNumber": 53, "time": 384.0040363999997, "prePupil": [0, 383.9923869999984], "postPupil": [0, 384.0541420999998]}], "extrakeypresses": [], "coordinates": [5.762786102314025, 3.6971338525598867], "preSpotPupil": [0, 386.5342419999997], "startTime": 386.5523280999987, "postSpotPupil": [0, 386.9250261999987], "rt": 0.33712910000031115, "response_key": "4"}
{"trialID": {"id": 43, "triggers": [235], "duration": 0.01}, "hemifield": "right", "block": 3, "sequence_number": 44, "delay": 4.900613531550028, "tones": [{"toneNumber": 54, "time": 391.676392899999, "prePupil": [0, 391.66424000000006], "postPupil": [0, 391.72647589999906]}], "extrakeypresses": [], "coordinates": [2.535553903289685, -2.405441397720585], "preSpotPupil": [0, 392.8754315999995], "startTime": 392.9016441999993, "postSpotPupil": [0, 393.3227723], "rt": 0.4037874000005104, "response_key": "4"}
{"trialID": {"id": 44, "triggers": [236], "duration": 0.01}, "hemifield": "right", "block": 3, "sequence_number": 45, "delay": 5.648334981337736, "tones": [{"toneNumber": 55, "time": 396.2904405999998, "prePupil": [0, 396.27730149999843], "postPupil": [0, 396.3405008999998]}], "extrakeypresses": [], "coordinates": [7.105711472351764, 6.152574259441058], "preSpotPupil": [0, 400.02105219999976], "startTime": 400.0509879000001, "postSpotPupil": [0, 400.5046771999987], "rt": 0.41011299999991024, "response_key": "4"}
{"trialID": {"id": 45, "triggers": [237], "duration": 0.01}, "hemifield": "right", "block": 3, "sequence_number": 46, "delay": 2.861453376425408, "tones": [], "extrakeypresses": [], "coordinates": [2.1010598005019885, -1.5102561891117574], "preSpotPupil": [0, 404.4172839999992], "startTime": 404.4501595999991, "postSpotPupil": [0, 405.08689669999876], "rt": 0.593880899999931, "response_key": "4", "late": true}
{"trialID": {"id": 46, "triggers": [238], "duration": 0.01}, "hemifield": "right", "block": 3, "sequence_number": 47, "delay": 3.6447328328367483, "tones": [], "extrakeypresses": [], "coordinates": [9.075765853854074, -1.405010061599505], "preSpotPupil": [0, 409.7641791999995], "startTime": 409.78041889999986, "postSpotPupil": [0, 410.1855889999988], "rt": 0.3700874999994994, "response_key": "4"}
{"trialID": {"id": 47, "triggers": [239], "duration": 0.01}, "hemifield": "right", "block": 3, "sequence_number": 48, "delay": 7.280267005809798, "tones": [{"toneNumber": 56, "time": 412.71754449999935, "prePupil": [0, 412.7058262999999], "postPupil": [0, 412.7677015999998]}, {"toneNumber": 57, "time": 416.16203139999925, "prePupil": [0, 416.15041999999994], "postPupil": [0, 416.21217629999956]}], "extrakeypresses": [], "coordinates": [1.9696411602459944, 7.4467670067956195], "preSpotPupil": [0, 418.5168582999995], "startTime": 418.5446103999984, "postSpotPupil": [0, 418.91700729999866], "rt": 0.33887229999891133, "response_key": "4"}
{"trialID": {"id": 48, "triggers": [240], "duration": 0.01}, "hemifield": "right", "block": 3, "sequence_number": 49, "delay": 7.062720705684645, "tones": [{"toneNumber": 58, "time": 421.12625019999905, "prePupil": [0, 421.11384179999914], "postPupil": [0, 421.17632669999875]}, {"toneNumber": 59, "time": 425.252945799999, "prePupil": [0, 425.240826199999], "postPupil": [0, 425.3030476999993]}], "extrakeypresses": [], "coordinates": [5.505332072014725, -0.13885102192432264], "preSpotPupil": [0, 427.03120249999847], "startTime": 427.0606262000001, "postSpotPupil": [0, 427.43144009999924], "rt": 0.3330987000008463, "response_key": "4"}
{"trialID": {"id": 49, "triggers": [241], "duration": 0.01}, "hemifield": "right", "block": 3, "sequence_number": 50, "delay": 7.884872653795059, "tones": [{"toneNumber": 60, "time": 432.12529729999915, "prePupil": [0, 432.1131375999994], "postPupil": [0, 432.17541619999975]}], "extrakeypresses": [], "coordinates": [12.849824477236698, 6.227764896987887], "preSpotPupil": [0, 436.3655949999993], "startTime": 436.39141969999946, "postSpotPupil": [0, 437.029096799999], "rt": 0.6023674999996729, "response_key": "4", "late": true}
{"trialID": {"id": 50, "triggers": [242], "duration": 0.01}, "hemifield": "right", "block": 3, "sequence_number": 51, "delay": 7.1845753849105956, "tones": [{"toneNumber": 61, "time": 439.1102777999986, "prePupil": [0, 439.0980787999997], "postPupil": [0, 439.16035310000007]}, {"toneNumber": 62, "time": 443.15058879999924, "prePupil": [0, 443.13828719999947], "postPupil": [0, 443.20069429999967]}], "extrakeypresses": [], "coordinates": [9.716043875241766, 0.34320022808893036], "preSpotPupil": [0, 445.2464504999989], "startTime": 445.2708161999999, "postSpotPupil": [0, 445.7099245999998], "rt": 0.4195886999987124, "response_key": "4"}
{"trialID": {"id": 51, "triggers": [243], "duration": 0.01}, "hemifield": "left", "block": 4, "sequence_number": 52, "delay": 1.6083538471028458, "tones": [], "extrakeypresses": [], "coordinates": [-14.992661796628369, 7.59865262847819], "preSpotPupil": [0, 451.40916149999975], "startTime": 451.43816049999987, "postSpotPupil": [0, 452.41076859999885], "missed": true}
{"trialID": {"id": 52, "triggers": [244], "duration": 0.01}, "hemifield": "left", "block": 4, "sequence_number": 53, "delay": 1.5635022936925616, "tones": [], "extrakeypresses": [], "coordinates": [-2.710646980419524, -2.1098861652251655], "preSpotPupil": [0, 454.4915446999985], "startTime": 454.5199950999995, "postSpotPupil": [0, 454.92518909999853], "rt": 0.35977900000034424, "response_key": "4"}
{"trialID": {"id": 53, "triggers": [245], "duration": 0.01}, "hemifield": "left", "block": 4, "sequence_number": 54, "delay": 3.0221378597639106, "tones": [], "extrakeypresses": [457.4355029999988], "coordinates": [-3.6767297554870897, -4.173924633393123], "preSpotPupil": [0, 458.9942228], "startTime": 459.0190249999996, "postSpotPupil": [0, 459.42364799999996], "rt": 0.3584928000000218, "response_key": "4"}
{"trialID": {"id": 54, "triggers": [246], "duration": 0.01}, "hemifield": "left", "block": 4, "sequence_number": 55, "delay": 4.226492116434407, "tones": [], "extrakeypresses": [], "coordinates": [-11.751665872276025, -7.942498608343907], "preSpotPupil": [0, 464.6999737999995], "startTime": 464.7167952, "postSpotPupil": [0, 465.3223646999995], "rt": 0.5640868999998929, "response_key": "4", "late": true}
{"trialID": {"id": 55, "triggers": [247], "duration": 0.01}, "hemifield": "left", "block": 4, "sequence_number": 56, "delay": 3.732670320805793, "tones": [{"toneNumber": 63, "time": 467.8716745999991, "prePupil": [0, 467.86047359999975], "postPupil": [0, 467.9218581999994]}], "extrakeypresses": [], "coordinates": [-5.3166244203289015, 8.075323271653632], "preSpotPupil": [0, 470.0884910999994], "startTime": 470.1167508999988, "postSpotPupil": [0, 470.5709350999987], "rt": 0.4188125000000582, "response_key": "4"}
{"trialID": {"id": 56, "triggers": [248], "duration": 0.01}, "hemifield": "left", "block": 4, "sequence_number": 57, "delay": 4.308436634671332, "tones": [{"toneNumber": 64, "time": 474.3810889999986, "prePupil": [0, 474.3690143999993], "postPupil": [0, 474.43115880000005]}], "extrakeypresses": [], "coordinates": [-3.859851871315012, 1.791597223750907], "preSpotPupil": [0, 475.93024999999943], "startTime": 475.94662529999914, "postSpotPupil": [0, 476.3531353999988], "rt": 0.3661410999993677, "response_key": "4"}
{"trialID": {"id": 57, "triggers": [249], "duration": 0.01}, "hemifield": "left", "block": 4, "sequence_number": 58, "delay": 7.902833861366124, "tones": [{"toneNumber": 65, "time": 479.13644529999874, "prePupil": [0, 479.124151], "postPupil": [0, 479.1865146]}, {"toneNumber": 66, "time": 483.59427069999947, "prePupil": [0, 483.58248920000005], "postPupil": [0, 483.6445255999988]}], "extrakeypresses": [], "coordinates": [-1.213508344599484, 2.643102394621451], "preSpotPupil": [0, 485.30655729999853], "startTime": 485.3295546999998, "postSpotPupil": [0, 485.70074919999934], "rt": 0.33001209999929415, "response_key": "4"}
{"trialID": {"id": 58, "triggers": [250], "duration": 0.01}, "hemifield": "left", "block": 4, "sequence_number": 59, "delay": 7.922195091953972, "tones": [{"toneNumber": 67, "time": 490.302472899999, "prePupil": [0, 490.29133999999976], "postPupil": [0, 490.35254369999893]}], "extrakeypresses": [], "coordinates": [-6.474279319989787, -4.972150704014664], "preSpotPupil": [0, 494.6732499999998], "startTime": 494.69240249999893, "postSpotPupil": [0, 495.04853619999994], "rt": 0.32020059999922523, "response_key": "4"}
{"trialID": {"id": 59, "triggers": [251], "duration": 0.01}, "hemifield": "left", "block": 4, "sequence_number": 60, "delay": 3.0239573484480635, "tones": [], "extrakeypresses": [], "coordinates": [-11.818392846598648, -2.6499361834802917], "preSpotPupil": [0, 499.1239689999984], "startTime": 499.1414948999991, "postSpotPupil": [0, 499.6307246999986], "rt": 0.4440970000014204, "response_key": "4"}
{"trialID": {"id": 60, "triggers": [252], "duration": 0.01}, "hemifield": "left", "block": 4, "sequence_number": 61, "delay": 3.1141055772994095, "tones": [], "extrakeypresses": [], "coordinates": [-4.658465433464258, 7.422981811715937], "preSpotPupil": [0, 503.7956252999993], "startTime": 503.8248017999995, "postSpotPupil": [0, 504.7981050999988], "missed": true}
{"trialID": {"id": 61, "triggers": [253], "duration": 0.01}, "hemifield": "left", "block": 4, "sequence_number": 62, "delay": 4.410525135127356, "tones": [{"toneNumber": 68, "time": 508.3461783999992, "prePupil": [0, 508.33437239999876], "postPupil": [0, 508.39623629999915]}], "extrakeypresses": [], "coordinates": [-14.967748525061834, 6.5567676049583685], "preSpotPupil": [0, 509.72674879999977], "startTime": 509.75591969999914, "postSpotPupil": [0, 510.5946193], "rt": 0.7978255000016361, "response_key": "4", "late": true}
{"trialID": {"id": 62, "triggers": [254], "duration": 0.01}, "hemifield": "left", "block": 4, "sequence_number": 63, "delay": 2.275938428026355, "tones": [], "extrakeypresses": [], "coordinates": [-9.416986692336414, 7.080076939534498], "preSpotPupil": [0, 513.9051188999983], "startTime": 513.9211096999989, "postSpotPupil": [0, 514.3769916000001], "rt": 0.41146220000155154, "response_key": "4"}
{"trialID": {"id": 63, "triggers": [129, 192], "duration": 0.02}, "hemifield": "left", "block": 4, "sequence_number": 64, "delay": 4.436728809394791, "tones": [{"toneNumber": 69, "time": 518.8129260999995, "prePupil": [0, 518.8007740999983], "postPupil": [0, 518.8630365999998]}], "extrakeypresses": [], "coordinates": [-12.521217395949853, -7.185534542588579], "preSpotPupil": [0, 519.8749791999999], "startTime": 519.9038818999998, "postSpotPupil": [0, 520.4091180999985], "rt": 0.4726325999999972, "response_key": "4", "late": true}
{"trialID": {"id": 64, "triggers": [129, 193], "duration": 0.02}, "hemifield": "left", "block": 4, "sequence_number": 65, "delay": 8.723885233970124, "tones": [{"toneNumber": 70, "time": 523.1619099999989, "prePupil": [0, 523.1500110999987], "postPupil": [0, 523.2119720999999]}, {"toneNumber": 71, "time": 525.0984792999989, "prePupil": [0, 525.0863737], "postPupil": [0, 525.1485511999999]}, {"toneNumber": 72, "time": 529.232108799999, "prePupil": [0, 529.2208154], "postPupil": [0, 529.2821826999989]}], "extrakeypresses": [], "coordinates": [-9.077974533060956, 2.298821913623863], "preSpotPupil": [0, 530.1934161999998], "startTime": 530.2196084999996, "postSpotPupil": [0, 531.2077229999995], "missed": true}
{"trialID": {"id": 65, "triggers": [129, 194], "duration": 0.02}, "hemifield": "left", "block": 4, "sequence_number": 66, "delay": 9.400721834403031, "tones": [{"toneNumber": 73, "time": 534.2711675999999, "prePupil": [0, 534.2594202], "postPupil": [0, 534.3212323999996]}, {"toneNumber": 74, "time": 539.1942406999988, "prePupil": [0, 539.1820719999996], "postPupil": [0, 539.2443004999986]}], "extrakeypresses": [], "coordinates": [-5.155155875121336, 7.7972438350035755], "preSpotPupil": [0, 541.136593199999], "startTime": 541.1649918999992, "postSpotPupil": [0, 541.7204967999987], "rt": 0.5107875000012427, "response_key": "4", "late": true}
{"trialID": {"id": 66, "triggers": [129, 195], "duration": 0.02}, "hemifield": "left", "block": 4, "sequence_number": 67, "delay": 7.514537860014158, "tones": [{"toneNumber": 75, "time": 546.1713593999993, "prePupil": [0, 546.1592990999998], "postPupil": [0, 546.2214307999984]}], "extrakeypresses": [], "coordinates": [-5.645269163679615, 2.929874234741563], "preSpotPupil": [0, 550.2802076999997], "startTime": 550.2959554999998, "postSpotPupil": [0, 550.7180806999986], "rt": 0.3836539999992965, "response_key": "4"}
{"trialID": {"id": 67, "triggers": [129, 196], "duration": 0.02}, "hemifield": "left", "block": 4, "sequence_number": 68, "delay": 6.995363888034913, "tones": [{"toneNumber": 76, "time": 553.0974645999995, "prePupil": [0, 553.0842927999984], "postPupil": [0, 553.1475414999986]}, {"toneNumber": 77, "time": 557.5095953, "prePupil": [0, 557.4977906999993], "postPupil": [0, 557.5596707999994]}], "extrakeypresses": [], "coordinates": [-8.07102587021252, 4.017667889046612], "preSpotPupil": [0, 558.7763384999998], "startTime": 558.7936945999991, "postSpotPupil": [0, 559.2996573], "rt": 0.46792350000032457, "response_key": "4"}
{"trialID": {"id": 68, "triggers": [129, 197], "duration": 0.02}, "hemifield": "left", "block": 4, "sequence_number": 69, "delay": 5.7560608459604925, "tones": [{"toneNumber": 78, "time": 564.2484645999994, "prePupil": [0, 564.235756], "postPupil": [0, 564.2985349999999]}], "extrakeypresses": [], "coordinates": [-10.42399110730097, 3.4611800188266955], "preSpotPupil": [0, 566.1165770999996], "startTime": 566.1424321999984, "postSpotPupil": [0, 566.6808613999983], "rt": 0.49507900000025984, "response_key": "4", "late": true}
{"trialID": {"id": 69, "triggers": [129, 198], "duration": 0.02}, "hemifield": "left", "block": 4, "sequence_number": 70, "delay": 6.768563710053571, "tones": [{"toneNumber": 79, "time": 571.7760712999989, "prePupil": [0, 571.7636926999985], "postPupil": [0, 571.8261303999989]}], "extrakeypresses": [], "coordinates": [-13.541101919312776, -6.123857155797834], "preSpotPupil": [0, 574.5102910999994], "startTime": 574.5410913999985, "postSpotPupil": [0, 575.1287820999987], "rt": 0.5394775000004302, "response_key": "4", "late": true}
{"trialID": {"id": 70, "triggers": [129, 199], "duration": 0.02}, "hemifield": "right", "block": 5, "sequence_number": 71, "delay": 6.382245001753612, "tones": [{"toneNumber": 80, "time": 581.5179064999993, "prePupil": [0, 581.5062082999993], "postPupil": [0, 581.5679962999984]}, {"toneNumber": 81, "time": 585.0397051999989, "prePupil": [0, 585.0276989999984], "postPupil": [0, 585.0897768999985]}], "extrakeypresses": [], "coordinates": [12.065253888312823, -5.283243065941642], "preSpotPupil": [0, 585.6138304999986], "startTime": 585.6385948999996, "postSpotPupil": [0, 586.6279255999998], "missed": true}
{"trialID": {"id": 71, "triggers": [129, 200], "duration": 0.02}, "hemifield": "right", "block": 5, "sequence_number": 72, "delay": 5.349753222210194, "tones": [{"toneNumber": 82, "time": 590.3325147999985, "prePupil": [0, 590.3212490999995], "postPupil": [0, 590.3825906999991]}], "extrakeypresses": [], "coordinates": [3.4709509727301495, 8.089022309204507], "preSpotPupil": [0, 592.5097059999989], "startTime": 592.535343399999, "postSpotPupil": [0, 593.5099879999998], "missed": true}
{"trialID": {"id": 72, "triggers": [129, 201], "duration": 0.02}, "hemifield": "right", "block": 5, "sequence_number": 73, "delay": 2.142081665214513, "tones": [], "extrakeypresses": [], "coordinates": [8.579815586130684, 8.633431266430597], "preSpotPupil": [0, 596.1820111999987], "startTime": 596.200718099999, "postSpotPupil": [0, 597.1920912999994], "missed": true}
{"trialID": {"id": 73, "triggers": [129, 202], "duration": 0.02}, "hemifield": "right", "block": 5, "sequence_number": 74, "delay": 6.859454138969241, "tones": [{"toneNumber": 83, "time": 598.9369556999991, "prePupil": [0, 598.9251291], "postPupil": [0, 598.9870616999997]}, {"toneNumber": 84, "time": 603.2416188999996, "prePupil": [0, 603.2299433999997], "postPupil": [0, 603.2917245999997]}], "extrakeypresses": [], "coordinates": [5.15093189948763, -5.87425006739248], "preSpotPupil": [0, 604.5811802999997], "startTime": 604.5988399999987, "postSpotPupil": [0, 605.1383983999986], "rt": 0.49376680000023043, "response_key": "4", "late": true}
{"trialID": {"id": 74, "triggers": [129, 203], "duration": 0.02}, "hemifield": "right", "block": 5, "sequence_number": 75, "delay": 6.509890310414217, "tones": [{"toneNumber": 85, "time": 608.6044181999987, "prePupil": [0, 608.5936249999995], "postPupil": [0, 608.6545157]}], "extrakeypresses": [], "coordinates": [15.809943164992513, 5.791034482420093], "preSpotPupil": [0, 612.7080005999997], "startTime": 612.7310633999987, "postSpotPupil": [0, 613.7216380999998], "missed": true}
{"trialID": {"id": 75, "triggers": [129, 204], "duration": 0.02}, "hemifield": "right", "block": 5, "sequence_number": 76, "delay": 6.6846672093976816, "tones": [{"toneNumber": 86, "time": 617.6792795999991, "prePupil": [0, 617.6665463999998], "postPupil": [0, 617.7293653999986]}, {"toneNumber": 87, "time": 620.0758000999995, "prePupil": [0, 620.0634152999992], "postPupil": [0, 620.1258595999989]}], "extrakeypresses": [], "coordinates": [10.062341856424673, 0.8185349028391009], "preSpotPupil": [0, 620.9365359999993], "startTime": 620.9615451999998, "postSpotPupil": [0, 621.4178135999991], "rt": 0.416403100000025, "response_key": "4"}
{"trialID": {"id": 76, "triggers": [129, 205], "duration": 0.02}, "hemifield": "right", "block": 5, "sequence_number": 77, "delay": 5.1275907287451705, "tones": [{"toneNumber": 88, "time": 624.2801905999986, "prePupil": [0, 624.2683705999989], "postPupil": [0, 624.3302943999988]}, {"toneNumber": 89, "time": 626.2263825999999, "prePupil": [0, 626.2138471999988], "postPupil": [0, 626.2765467999998]}], "extrakeypresses": [], "coordinates": [2.7847100859949316, -7.24804653092267], "preSpotPupil": [0, 627.6058207999995], "startTime": 627.627449399999, "postSpotPupil": [0, 628.1660580999996], "rt": 0.501310999999987, "response_key": "4", "late": true}
{"trialID": {"id": 77, "triggers": [129, 206], "duration": 0.02}, "hemifield": "right", "block": 5, "sequence_number": 78, "delay": 2.744157059235957, "tones": [], "extrakeypresses": [], "coordinates": [6.841668934701872, -5.562120834154728], "preSpotPupil": [0, 631.9523492999997], "startTime": 631.9795901999987, "postSpotPupil": [0, 632.3817240999997], "rt": 0.368198800000755, "response_key": "4"}
{"trialID": {"id": 78, "triggers": [129, 207], "duration": 0.02}, "hemifield": "right", "block": 5, "sequence_number": 79, "delay": 6.931753208885449, "tones": [{"toneNumber": 90, "time": 635.8522477999995, "prePupil": [0, 635.8394931999992], "postPupil": [0, 635.9023163999991]}, {"toneNumber": 91, "time": 638.8910187999991, "prePupil": [0, 638.8796270999992], "postPupil": [0, 638.9410863999983]}], "extrakeypresses": [], "coordinates": [10.207793803638733, 4.598240746448784], "preSpotPupil": [0, 640.3727167999987], "startTime": 640.3902616999985, "postSpotPupil": [0, 640.8296365999995], "rt": 0.4054434999998193, "response_key": "4"}
{"trialID": {"id": 79, "triggers": [129, 208], "duration": 0.02}, "hemifield": "right", "block": 5, "sequence_number": 80, "delay": 2.4765847992726213, "tones": [], "extrakeypresses": [], "coordinates": [6.633727540576777, -3.3624669862885295], "preSpotPupil": [0, 644.3704737999997], "startTime": 644.3906149999984, "postSpotPupil": [0, 644.7950693999992], "rt": 0.3710448000001634, "response_key": "4"}
{"trialID": {"id": 80, "triggers": [129, 209], "duration": 0.02}, "hemifield": "right", "block": 5, "sequence_number": 81, "delay": 4.607440930303995, "tones": [{"toneNumber": 92, "time": 647.1878500999992, "prePupil": [0, 647.175884799999], "postPupil": [0, 647.2379580999987]}], "extrakeypresses": [649.6167484999987], "coordinates": [2.644714469919645, -2.819944788969135], "preSpotPupil": [0, 650.4648576999989], "startTime": 650.4896435999999, "postSpotPupil": [0, 650.8931968999987], "rt": 0.3700308999996196, "response_key": "4"}
{"trialID": {"id": 81, "triggers": [129, 210], "duration": 0.02}, "hemifield": "right", "block": 5, "sequence_number": 82, "delay": 3.566804144782565, "tones": [{"toneNumber": 93, "time": 654.757329099999, "prePupil": [0, 654.7458266999984], "postPupil": [0, 654.807402299999]}], "extrakeypresses": [], "coordinates": [1.2466101178747944, 7.158478748563699], "preSpotPupil": [0, 655.5233325999998], "startTime": 655.5546734, "postSpotPupil": [0, 656.1256979999998], "rt": 0.5240221000003658, "response_key": "4", "late": true}
{"trialID": {"id": 82, "triggers": [129, 211], "duration": 0.02}, "hemifield": "right", "block": 5, "sequence_number": 83, "delay": 2.066624233015772, "tones": [], "extrakeypresses": [], "coordinates": [8.939225632534857, -6.875103512927115], "preSpotPupil": [0, 659.2390627999994], "startTime": 659.2723365999991, "postSpotPupil": [0, 659.8083244999998], "rt": 0.4995485999988887, "response_key": "4", "late": true}
{"trialID": {"id": 83, "triggers": [129, 212], "duration": 0.02}, "hemifield": "right", "block": 5, "sequence_number": 84, "delay": 7.191111802398876, "tones": [{"toneNumber": 94, "time": 664.6572803999989, "prePupil": [0, 664.6451063999993], "postPupil": [0, 664.7074026999999]}], "extrakeypresses": [], "coordinates": [3.4340227606623484, 7.654357090179738], "preSpotPupil": [0, 668.0613661999996], "startTime": 668.0845596999989, "postSpotPupil": [0, 668.5728786999989], "rt": 0.4457689999999275, "response_key": "4"}
{"trialID": {"id": 84, "triggers": [129, 213], "duration": 0.02}, "hemifield": "right", "block": 5, "sequence_number": 85, "delay": 8.52093982517225, "tones": [{"toneNumber": 95, "time": 672.2315623999984, "prePupil": [0, 672.2197965999985], "postPupil": [0, 672.2816321999999]}, {"toneNumber": 96, "time": 676.2783002999986, "prePupil": [0, 676.2663197999991], "postPupil": [0, 676.3284101999998]}], "extrakeypresses": [], "coordinates": [9.529254439937786, 4.396673723921987], "preSpotPupil": [0, 678.1521864999995], "startTime": 678.1850918, "postSpotPupil": [0, 678.7039582999987], "rt": 0.48192810000000463, "response_key": "4", "late": true}
{"trialID": {"id": 85, "triggers": [129, 214], "duration": 0.02}, "hemifield": "right", "block": 5, "sequence_number": 86, "delay": 9.438400468832702, "tones": [{"toneNumber": 97, "time": 682.7977456999997, "prePupil": [0, 682.7856870999985], "postPupil": [0, 682.8482253999991]}, {"toneNumber": 98, "time": 685.2321248999997, "prePupil": [0, 685.2197701999994], "postPupil": [0, 685.2821908999995]}], "extrakeypresses": [], "coordinates": [2.1553007240151274, -7.338335105360775], "preSpotPupil": [0, 689.2070433999997], "startTime": 689.228617499999, "postSpotPupil": [0, 689.6843276], "rt": 0.4161418000003323, "response_key": "4"}
{"trialID": {"id": 86, "triggers": [129, 215], "duration": 0.02}, "hemifield": "right", "block": 5, "sequence_number": 87, "delay": 7.561213226948871, "tones": [{"toneNumber": 99, "time": 694.5893495, "prePupil": [0, 694.5775938999996], "postPupil": [0, 694.6394377999986]}], "extrakeypresses": [], "coordinates": [1.984402210200837, 4.631530750395376], "preSpotPupil": [0, 698.3078064000001], "startTime": 698.3270582999994, "postSpotPupil": [0, 698.7486482999993], "rt": 0.385726300000897, "response_key": "4"}
{"trialID": {"id": 87, "triggers": [129, 216], "duration": 0.02}, "hemifield": "left", "block": 6, "sequence_number": 88, "delay": 9.105933226677998, "tones": [{"toneNumber": 100, "time": 706.4314737999994, "prePupil": [0, 706.4202849999983], "postPupil": [0, 706.4815565999997]}, {"toneNumber": 101, "time": 708.4205087999999, "prePupil": [0, 708.4087708999996], "postPupil": [0, 708.4705672]}, {"toneNumber": 102, "time": 711.1073991999983, "prePupil": [0, 711.0943209999987], "postPupil": [0, 711.1574850999987]}], "extrakeypresses": [], "coordinates": [-14.899052856207303, -7.033158799222743], "preSpotPupil": [0, 711.9736456999999], "startTime": 711.9902668999985, "postSpotPupil": [0, 712.9803734999987], "missed": true}
{"trialID": {"id": 88, "triggers": [129, 217], "duration": 0.02}, "hemifield": "left", "block": 6, "sequence_number": 89, "delay": 3.7716758829737795, "tones": [{"toneNumber": 103, "time": 715.9497913999985, "prePupil": [0, 715.9382160999994], "postPupil": [0, 715.9999423999998]}], "extrakeypresses": [], "coordinates": [-2.0321637517782953, 4.940576437795851], "preSpotPupil": [0, 717.2880786999995], "startTime": 717.3047006999986, "postSpotPupil": [0, 717.8107336999983], "rt": 0.4680205000004207, "response_key": "4"}
{"trialID": {"id": 89, "triggers": [129, 218], "duration": 0.02}, "hemifield": "left", "block": 6, "sequence_number": 90, "delay": 2.727295656897569, "tones": [], "extrakeypresses": [], "coordinates": [-2.332696599371719, 2.4128386773482156], "preSpotPupil": [0, 721.6015288999988], "startTime": 721.6219896999992, "postSpotPupil": [0, 722.0598583999999], "rt": 0.4017306000005192, "response_key": "4"}
{"trialID": {"id": 90, "triggers": [129, 219], "duration": 0.02}, "hemifield": "left", "block": 6, "sequence_number": 91, "delay": 5.458554227120443, "tones": [{"toneNumber": 104, "time": 725.6264348999994, "prePupil": [0, 725.6142536999996], "postPupil": [0, 725.6765192999992]}], "extrakeypresses": [], "coordinates": [-6.018768675518718, -3.2288409930736153], "preSpotPupil": [0, 728.5796233000001], "startTime": 728.604437, "postSpotPupil": [0, 728.9748341999984], "rt": 0.33345829999962007, "response_key": "4"}
{"trialID": {"id": 91, "triggers": [129, 220], "duration": 0.02}, "hemifield": "left", "block": 6, "sequence_number": 92, "delay": 7.361652095147615, "tones": [{"toneNumber": 105, "time": 731.2311626999999, "prePupil": [0, 731.2189201000001], "postPupil": [0, 731.2812309000001]}, {"toneNumber": 106, "time": 736.2244331999991, "prePupil": [0, 736.2120885999993], "postPupil": [0, 736.2745156000001]}], "extrakeypresses": [], "coordinates": [-7.371161264747045, 0.1441647388078291], "preSpotPupil": [0, 737.3966138999986], "startTime": 737.4178920999984, "postSpotPupil": [0, 737.9393975999992], "rt": 0.4779969000010169, "response_key": "4", "late": true}
{"trialID": {"id": 92, "triggers": [129, 221], "duration": 0.02}, "hemifield": "left", "block": 6, "sequence_number": 93, "delay": 4.2358311820749925, "tones": [{"toneNumber": 107, "time": 741.807727899999, "prePupil": [0, 741.7946756000001], "postPupil": [0, 741.8578073999997]}], "extrakeypresses": [], "coordinates": [-12.81397662800712, 8.101507284985432], "preSpotPupil": [0, 743.2368813999983], "startTime": 743.2665519999991, "postSpotPupil": [0, 744.2399026999992], "missed": true}
{"trialID": {"id": 93, "triggers": [129, 222], "duration": 0.02}, "hemifield": "left", "block": 6, "sequence_number": 94, "delay": 6.580076279303663, "tones": [{"toneNumber": 108, "time": 746.3028992999989, "prePupil": [0, 746.2914954999997], "postPupil": [0, 746.3529798999989]}], "extrakeypresses": [], "coordinates": [-8.06206565594691, -0.9124169061548519], "preSpotPupil": [0, 751.3521830999998], "startTime": 751.3801065999996, "postSpotPupil": [0, 751.8357887999991], "rt": 0.4200378000005003, "response_key": "4"}
{"trialID": {"id": 94, "triggers": [129, 223], "duration": 0.02}, "hemifield": "left", "block": 6, "sequence_number": 95, "delay": 2.2417444415113463, "tones": [{"toneNumber": 109, "time": 754.5099271999989, "prePupil": [0, 754.4979026000001], "postPupil": [0, 754.5600156]}], "extrakeypresses": [], "coordinates": [-9.863946514702416, 7.613953457849936], "preSpotPupil": [0, 755.1383572999985], "startTime": 755.1631635999984, "postSpotPupil": [0, 756.1532142999986], "missed": true}
{"trialID": {"id": 95, "triggers": [129, 224], "duration": 0.02}, "hemifield": "left", "block": 6, "sequence_number": 96, "delay": 6.128989660945528, "tones": [{"toneNumber": 110, "time": 760.3728692999994, "prePupil": [0, 760.360931199999], "postPupil": [0, 760.4229477999997]}], "extrakeypresses": [], "coordinates": [-1.4350388709149886, -2.1251300532544457], "preSpotPupil": [0, 762.8116329999993], "startTime": 762.8267630999999, "postSpotPupil": [0, 763.2829611999987], "rt": 0.40803760000017064, "response_key": "4"}
{"trialID": {"id": 96, "triggers": [129, 225], "duration": 0.02}, "hemifield": "left", "block": 6, "sequence_number": 97, "delay": 4.406258532381802, "tones": [{"toneNumber": 111, "time": 766.4982532999984, "prePupil": [0, 766.4868134999997], "postPupil": [0, 766.5483389000001]}], "extrakeypresses": [], "coordinates": [-9.599823282889721, -3.999715628111188], "preSpotPupil": [0, 768.7508855999986], "startTime": 768.7783383999995, "postSpotPupil": [0, 769.3314839999985], "rt": 0.5164382000002661, "response_key": "4", "late": true}
{"trialID": {"id": 97, "triggers": [129, 226], "duration": 0.02}, "hemifield": "left", "block": 6, "sequence_number": 98, "delay": 3.764097722390316, "tones": [{"toneNumber": 112, "time": 772.6082803999998, "prePupil": [0, 772.5968746999988], "postPupil": [0, 772.6584026]}], "extrakeypresses": [], "coordinates": [-7.430105154426542, -5.130641478957907], "preSpotPupil": [0, 774.1417046999995], "startTime": 774.1767357999997, "postSpotPupil": [0, 774.6138179999998], "rt": 0.39211579999937385, "response_key": "4"}
{"trialID": {"id": 98, "triggers": [129, 227], "duration": 0.02}, "hemifield": "left", "block": 6, "sequence_number": 99, "delay": 8.449631071361694, "tones": [{"toneNumber": 113, "time": 777.4704698999994, "prePupil": [0, 777.4583426999998], "postPupil": [0, 777.5205291999991]}, {"toneNumber": 114, "time": 781.066154099999, "prePupil": [0, 781.0535978999997], "postPupil": [0, 781.1162380999995]}], "extrakeypresses": [], "coordinates": [-10.123011951686667, -6.731970585227514], "preSpotPupil": [0, 784.1238763999991], "startTime": 784.1391528999993, "postSpotPupil": [0, 784.5778545999983], "rt": 0.3996351000005234, "response_key": "4"}
{"trialID": {"id": 99, "triggers": [129, 228], "duration": 0.02}, "hemifield": "left", "block": 6, "sequence_number": 100, "delay": 4.2105087903360054, "tones": [{"toneNumber": 115, "time": 788.2868282999989, "prePupil": [0, 788.2742568999984], "postPupil": [0, 788.3369497999993]}], "extrakeypresses": [], "coordinates": [-15.607402437070649, 1.2715779599687593], "preSpotPupil": [0, 789.8534737999998], "startTime": 789.8707541999993, "postSpotPupil": [0, 790.6430372999985], "rt": 0.7286343000014313, "response_key": "4", "late": true}
{"trialID": {"id": 100, "triggers": [129, 229], "duration": 0.02}, "hemifield": "left", "block": 6, "sequence_number": 101, "delay": 1.7726495884740023, "tones": [], "extrakeypresses": [], "coordinates": [-1.6441433174395552, -8.130720326305799], "preSpotPupil": [0, 793.4590883000001], "startTime": 793.4885495999988, "postSpotPupil": [0, 794.0256350999989], "rt": 0.497319799998877, "response_key": "4", "late": true}
{"trialID": {"id": 101, "triggers": [129, 230], "duration": 0.02}, "hemifield": "left", "block": 6, "sequence_number": 102, "delay": 2.2023120131116247, "tones": [], "extrakeypresses": [], "coordinates": [-9.020758409594341, 7.955821494862887], "preSpotPupil": [0, 797.2859487999995], "startTime": 797.3030003999993, "postSpotPupil": [0, 798.2927626000001], "missed": true}
{"trialID": {"id": 102, "triggers": [129, 231], "duration": 0.02}, "hemifield": "left", "block": 6, "sequence_number": 103, "delay": 5.078987190072885, "tones": [{"toneNumber": 116, "time": 800.5704897999985, "prePupil": [0, 800.5583624999999], "postPupil": [0, 800.6206158999994]}, {"toneNumber": 117, "time": 802.3066117999988, "prePupil": [0, 802.2941811000001], "postPupil": [0, 802.3567062999991]}], "extrakeypresses": [], "coordinates": [-10.858041275900256, -0.9894274241454983], "preSpotPupil": [0, 803.9036336999998], "startTime": 803.9164840999983, "postSpotPupil": [0, 804.4232536999989], "rt": 0.47028560000035213, "response_key": "4"}
{"trialID": {"id": 103, "triggers": [129, 232], "duration": 0.02}, "hemifield": "left", "block": 6, "sequence_number": 104, "delay": 4.27542987743346, "tones": [{"toneNumber": 118, "time": 808.5195542999991, "prePupil": [0, 808.5075403999999], "postPupil": [0, 808.5696613]}], "extrakeypresses": [], "coordinates": [-5.451587596867771, 7.94486015937972], "preSpotPupil": [0, 809.7585085999999], "startTime": 809.7846752999994, "postSpotPupil": [0, 810.521729], "rt": 0.6890653999998904, "response_key": "4", "late": true}
{"trialID": {"id": 104, "triggers": [129, 233], "duration": 0.02}, "hemifield": "left", "block": 6, "sequence_number": 105, "delay": 9.253631790944066, "tones": [{"toneNumber": 119, "time": 812.7019796999994, "prePupil": [0, 812.6903488999997], "postPupil": [0, 812.7520659999991]}, {"toneNumber": 120, "time": 814.9975523999983, "prePupil": [0, 814.9855142999986], "postPupil": [0, 815.0476376999995]}, {"toneNumber": 121, "time": 819.7430484999986, "prePupil": [0, 819.7308917999999], "postPupil": [0, 819.7931271999987]}], "extrakeypresses": [], "coordinates": [-12.697896869072622, 3.7296109928843872], "preSpotPupil": [0, 820.8167192000001], "startTime": 820.8487251999995, "postSpotPupil": [0, 821.4854144000001], "rt": 0.6011144000003696, "response_key": "4", "late": true}
{"trialID": {"id": 105, "triggers": [129, 234], "duration": 0.02}, "hemifield": "left", "block": 6, "sequence_number": 106, "delay": 4.139355738574723, "tones": [{"toneNumber": 122, "time": 824.6076278, "prePupil": [0, 824.5955615999992], "postPupil": [0, 824.6578039999986]}], "extrakeypresses": [], "coordinates": [-2.088789722914088, -2.936814173022915], "preSpotPupil": [0, 826.6717703999984], "startTime": 826.6947674999992, "postSpotPupil": [0, 827.1005505999983], "rt": 0.3712489000008645, "response_key": "4"}
